"subject"	"block"	"trial"	"cue"	"cond"	"is_common"	"outcome_go"	"outcome_nogo"	"key_correct"	"key_pressed"	"is_correct"	"outcome"	"rt"	"shocked"	"tdcs"
15	1	1	3	"go_reward"	0	0	1	1	0	0	1	NA	NA	1
15	1	2	4	"nogo_reward"	1	0	1	0	1	0	0	0.25900339987129	NA	1
15	1	3	3	"go_reward"	1	1	0	1	1	1	1	0.370296700159088	NA	1
15	1	4	4	"nogo_reward"	1	0	1	0	1	0	0	0.427141799824312	NA	1
15	1	5	3	"go_reward"	0	0	1	1	1	1	0	0.242447199998423	NA	1
15	1	6	2	"nogo_punish"	1	-1	0	0	1	0	-1	0.59364219987765	1	1
15	1	7	4	"nogo_reward"	0	1	0	0	1	0	1	0.256557499989867	NA	1
15	1	8	2	"nogo_punish"	1	-1	0	0	0	1	0	NA	NA	1
15	1	9	1	"go_punish"	1	0	-1	1	1	1	0	0.288872400065884	NA	1
15	1	10	2	"nogo_punish"	1	-1	0	0	0	1	0	NA	NA	1
15	1	11	2	"nogo_punish"	1	-1	0	0	0	1	0	NA	NA	1
15	1	12	2	"nogo_punish"	1	-1	0	0	0	1	0	NA	NA	1
15	1	13	2	"nogo_punish"	0	0	-1	0	0	1	-1	NA	1	1
15	1	14	4	"nogo_reward"	1	0	1	0	1	0	0	0.304108100011945	NA	1
15	1	15	4	"nogo_reward"	1	0	1	0	1	0	0	0.432057499885559	NA	1
15	1	16	3	"go_reward"	0	0	1	1	1	1	0	0.421042100060731	NA	1
15	1	17	4	"nogo_reward"	0	1	0	0	1	0	1	0.408962900051847	NA	1
15	1	18	1	"go_punish"	0	-1	0	1	1	1	-1	0.438138199970126	1	1
15	1	19	2	"nogo_punish"	1	-1	0	0	0	1	0	NA	NA	1
15	1	20	3	"go_reward"	1	1	0	1	1	1	1	0.34692609985359	NA	1
15	1	21	3	"go_reward"	1	1	0	1	1	1	1	0.3282373000402	NA	1
15	1	22	3	"go_reward"	0	0	1	1	1	1	0	0.476355500053614	NA	1
15	1	23	3	"go_reward"	0	0	1	1	1	1	0	0.272002100013197	NA	1
15	1	24	1	"go_punish"	1	0	-1	1	0	0	-1	NA	0	1
15	1	25	1	"go_punish"	1	0	-1	1	0	0	-1	NA	1	1
15	1	26	3	"go_reward"	1	1	0	1	1	1	1	0.292149000102654	NA	1
15	1	27	1	"go_punish"	1	0	-1	1	1	1	0	0.257300599943847	NA	1
15	1	28	4	"nogo_reward"	1	0	1	0	1	0	0	0.277474700007588	NA	1
15	1	29	3	"go_reward"	0	0	1	1	1	1	0	0.251466599991545	NA	1
15	1	30	4	"nogo_reward"	1	0	1	0	0	1	1	NA	NA	1
15	1	31	3	"go_reward"	1	1	0	1	1	1	1	0.468140499899164	NA	1
15	1	32	1	"go_punish"	1	0	-1	1	1	1	0	0.294352299999446	NA	1
15	1	33	1	"go_punish"	1	0	-1	1	1	1	0	0.39328629989177	NA	1
15	1	34	2	"nogo_punish"	0	0	-1	0	0	1	-1	NA	0	1
15	1	35	2	"nogo_punish"	1	-1	0	0	0	1	0	NA	NA	1
15	1	36	2	"nogo_punish"	1	-1	0	0	0	1	0	NA	NA	1
15	1	37	4	"nogo_reward"	1	0	1	0	0	1	1	NA	NA	1
15	1	38	4	"nogo_reward"	0	1	0	0	0	1	0	NA	NA	1
15	1	39	1	"go_punish"	1	0	-1	1	1	1	0	0.266905199969187	NA	1
15	1	40	2	"nogo_punish"	0	0	-1	0	0	1	-1	NA	0	1
15	1	41	1	"go_punish"	1	0	-1	1	1	1	0	0.28681269986555	NA	1
15	1	42	1	"go_punish"	1	0	-1	1	1	1	0	0.483336500125006	NA	1
15	1	43	3	"go_reward"	1	1	0	1	1	1	1	0.278757399879396	NA	1
15	1	44	3	"go_reward"	0	0	1	1	1	1	0	0.272545199841261	NA	1
15	1	45	2	"nogo_punish"	0	0	-1	0	0	1	-1	NA	0	1
15	1	46	4	"nogo_reward"	1	0	1	0	0	1	1	NA	NA	1
15	1	47	2	"nogo_punish"	0	0	-1	0	0	1	-1	NA	0	1
15	1	48	4	"nogo_reward"	1	0	1	0	0	1	1	NA	NA	1
15	1	49	2	"nogo_punish"	1	-1	0	0	0	1	0	NA	NA	1
15	1	50	1	"go_punish"	1	0	-1	1	1	1	0	0.451247899793088	NA	1
15	1	51	3	"go_reward"	1	1	0	1	1	1	1	0.387430399889126	NA	1
15	1	52	1	"go_punish"	1	0	-1	1	1	1	0	0.406101500149816	NA	1
15	1	53	3	"go_reward"	1	1	0	1	1	1	1	0.256620100000873	NA	1
15	1	54	1	"go_punish"	1	0	-1	1	0	0	-1	NA	1	1
15	1	55	4	"nogo_reward"	1	0	1	0	0	1	1	NA	NA	1
15	1	56	2	"nogo_punish"	0	0	-1	0	0	1	-1	NA	0	1
15	1	57	1	"go_punish"	1	0	-1	1	1	1	0	0.37881000014022	NA	1
15	1	58	1	"go_punish"	1	0	-1	1	1	1	0	0.304862800054252	NA	1
15	1	59	4	"nogo_reward"	0	1	0	0	0	1	0	NA	NA	1
15	1	60	4	"nogo_reward"	1	0	1	0	0	1	1	NA	NA	1
15	2	61	2	"nogo_punish"	1	-1	0	0	1	0	-1	0.507075000088662	1	1
15	2	62	3	"go_reward"	0	0	1	1	1	1	0	0.288570899982005	NA	1
15	2	63	4	"nogo_reward"	1	0	1	0	1	0	0	0.273863800102845	NA	1
15	2	64	4	"nogo_reward"	1	0	1	0	1	0	0	0.486412500031292	NA	1
15	2	65	3	"go_reward"	0	0	1	1	1	1	0	0.251118599902839	NA	1
15	2	66	4	"nogo_reward"	1	0	1	0	0	1	1	NA	NA	1
15	2	67	3	"go_reward"	1	1	0	1	1	1	1	0.354727199999615	NA	1
15	2	68	3	"go_reward"	1	1	0	1	1	1	1	0.287113999947905	NA	1
15	2	69	1	"go_punish"	0	-1	0	1	1	1	-1	0.262549699982628	1	1
15	2	70	2	"nogo_punish"	1	-1	0	0	1	0	-1	0.371689599938691	1	1
15	2	71	1	"go_punish"	0	-1	0	1	1	1	-1	0.580950099974871	0	1
15	2	72	3	"go_reward"	1	1	0	1	1	1	1	0.272145800059661	NA	1
15	2	73	3	"go_reward"	1	1	0	1	1	1	1	0.259809599956497	NA	1
15	2	74	1	"go_punish"	1	0	-1	1	1	1	0	0.423847399884835	NA	1
15	2	75	4	"nogo_reward"	0	1	0	0	0	1	0	NA	NA	1
15	2	76	2	"nogo_punish"	1	-1	0	0	0	1	0	NA	NA	1
15	2	77	2	"nogo_punish"	0	0	-1	0	0	1	-1	NA	0	1
15	2	78	1	"go_punish"	1	0	-1	1	1	1	0	0.107331600040197	NA	1
15	2	79	4	"nogo_reward"	1	0	1	0	0	1	1	NA	NA	1
15	2	80	3	"go_reward"	1	1	0	1	1	1	1	0.246718700043857	NA	1
15	2	81	4	"nogo_reward"	1	0	1	0	0	1	1	NA	NA	1
15	2	82	2	"nogo_punish"	1	-1	0	0	0	1	0	NA	NA	1
15	2	83	1	"go_punish"	1	0	-1	1	1	1	0	0.295926699880511	NA	1
15	2	84	3	"go_reward"	0	0	1	1	1	1	0	0.462103799916804	NA	1
15	2	85	1	"go_punish"	1	0	-1	1	1	1	0	0.36125379987061	NA	1
15	2	86	1	"go_punish"	1	0	-1	1	1	1	0	0.322824000148103	NA	1
15	2	87	4	"nogo_reward"	1	0	1	0	0	1	1	NA	NA	1
15	2	88	4	"nogo_reward"	1	0	1	0	0	1	1	NA	NA	1
15	2	89	3	"go_reward"	0	0	1	1	1	1	0	0.268071400001645	NA	1
15	2	90	1	"go_punish"	0	-1	0	1	1	1	-1	0.302988199982792	0	1
15	2	91	4	"nogo_reward"	1	0	1	0	0	1	1	NA	NA	1
15	2	92	1	"go_punish"	1	0	-1	1	1	1	0	0.367579799843952	NA	1
15	2	93	1	"go_punish"	1	0	-1	1	0	0	-1	NA	0	1
15	2	94	1	"go_punish"	1	0	-1	1	1	1	0	0.242671600077301	NA	1
15	2	95	4	"nogo_reward"	1	0	1	0	0	1	1	NA	NA	1
15	2	96	1	"go_punish"	0	-1	0	1	1	1	-1	0.260723100043833	0	1
15	2	97	4	"nogo_reward"	1	0	1	0	0	1	1	NA	NA	1
15	2	98	1	"go_punish"	0	-1	0	1	1	1	-1	0.639565699966624	1	1
15	2	99	3	"go_reward"	0	0	1	1	1	1	0	0.23967060004361	NA	1
15	2	100	4	"nogo_reward"	1	0	1	0	0	1	1	NA	NA	1
15	2	101	3	"go_reward"	1	1	0	1	1	1	1	0.272992299869657	NA	1
15	2	102	4	"nogo_reward"	1	0	1	0	0	1	1	NA	NA	1
15	2	103	2	"nogo_punish"	1	-1	0	0	0	1	0	NA	NA	1
15	2	104	3	"go_reward"	1	1	0	1	1	1	1	0.310454800026491	NA	1
15	2	105	3	"go_reward"	1	1	0	1	1	1	1	0.0206367999780923	NA	1
15	2	106	2	"nogo_punish"	1	-1	0	0	1	0	-1	0.831789299845695	0	1
15	2	107	3	"go_reward"	0	0	1	1	1	1	0	0.299218700034544	NA	1
15	2	108	2	"nogo_punish"	0	0	-1	0	0	1	-1	NA	0	1
15	2	109	2	"nogo_punish"	0	0	-1	0	0	1	-1	NA	0	1
15	2	110	2	"nogo_punish"	0	0	-1	0	0	1	-1	NA	0	1
15	2	111	2	"nogo_punish"	0	0	-1	0	0	1	-1	NA	0	1
15	2	112	4	"nogo_reward"	1	0	1	0	0	1	1	NA	NA	1
15	2	113	2	"nogo_punish"	1	-1	0	0	0	1	0	NA	NA	1
15	2	114	2	"nogo_punish"	1	-1	0	0	0	1	0	NA	NA	1
15	2	115	2	"nogo_punish"	1	-1	0	0	0	1	0	NA	NA	1
15	2	116	4	"nogo_reward"	1	0	1	0	0	1	1	NA	NA	1
15	2	117	1	"go_punish"	1	0	-1	1	1	1	0	0.300790700130165	NA	1
15	2	118	3	"go_reward"	1	1	0	1	1	1	1	0.470303499838337	NA	1
15	2	119	1	"go_punish"	1	0	-1	1	1	1	0	0.303002299973741	NA	1
15	2	120	2	"nogo_punish"	0	0	-1	0	0	1	-1	NA	0	1
15	3	121	1	"go_punish"	0	-1	0	1	1	1	-1	0.325110299978405	1	1
15	3	122	3	"go_reward"	1	1	0	1	1	1	1	0.270202800165862	NA	1
15	3	123	1	"go_punish"	1	0	-1	1	1	1	0	0.506436700001359	NA	1
15	3	124	3	"go_reward"	0	0	1	1	1	1	0	0.386662500211969	NA	1
15	3	125	3	"go_reward"	1	1	0	1	1	1	1	0.287179399980232	NA	1
15	3	126	1	"go_punish"	1	0	-1	1	1	1	0	0.301985800033435	NA	1
15	3	127	1	"go_punish"	0	-1	0	1	1	1	-1	0.321924700168893	1	1
15	3	128	2	"nogo_punish"	1	-1	0	0	1	0	-1	0.401330700144172	0	1
15	3	129	3	"go_reward"	1	1	0	1	1	1	1	0.349957100115717	NA	1
15	3	130	2	"nogo_punish"	1	-1	0	0	1	0	-1	0.287104099988937	0	1
15	3	131	2	"nogo_punish"	1	-1	0	0	0	1	0	NA	NA	1
15	3	132	3	"go_reward"	1	1	0	1	1	1	1	0.407914299983531	NA	1
15	3	133	2	"nogo_punish"	1	-1	0	0	0	1	0	NA	NA	1
15	3	134	2	"nogo_punish"	1	-1	0	0	0	1	0	NA	NA	1
15	3	135	3	"go_reward"	1	1	0	1	1	1	1	0.390835899859667	NA	1
15	3	136	1	"go_punish"	1	0	-1	1	0	0	-1	NA	0	1
15	3	137	4	"nogo_reward"	1	0	1	0	1	0	0	0.253648499958217	NA	1
15	3	138	1	"go_punish"	0	-1	0	1	0	0	0	NA	NA	1
15	3	139	1	"go_punish"	1	0	-1	1	0	0	-1	NA	0	1
15	3	140	2	"nogo_punish"	1	-1	0	0	0	1	0	NA	NA	1
15	3	141	4	"nogo_reward"	1	0	1	0	0	1	1	NA	NA	1
15	3	142	3	"go_reward"	0	0	1	1	1	1	0	0.249835600145161	NA	1
15	3	143	1	"go_punish"	0	-1	0	1	0	0	0	NA	NA	1
15	3	144	2	"nogo_punish"	0	0	-1	0	0	1	-1	NA	0	1
15	3	145	4	"nogo_reward"	1	0	1	0	0	1	1	NA	NA	1
15	3	146	1	"go_punish"	1	0	-1	1	0	0	-1	NA	0	1
15	3	147	3	"go_reward"	1	1	0	1	1	1	1	0.54191069980152	NA	1
15	3	148	2	"nogo_punish"	1	-1	0	0	0	1	0	NA	NA	1
15	3	149	4	"nogo_reward"	0	1	0	0	1	0	1	0.539082400035113	NA	1
15	3	150	1	"go_punish"	1	0	-1	1	1	1	0	0.384185200091451	NA	1
15	3	151	3	"go_reward"	0	0	1	1	1	1	0	0.29774979990907	NA	1
15	3	152	4	"nogo_reward"	1	0	1	0	0	1	1	NA	NA	1
15	3	153	1	"go_punish"	1	0	-1	1	1	1	0	0.246942400000989	NA	1
15	3	154	2	"nogo_punish"	1	-1	0	0	0	1	0	NA	NA	1
15	3	155	2	"nogo_punish"	1	-1	0	0	0	1	0	NA	NA	1
15	3	156	4	"nogo_reward"	1	0	1	0	0	1	1	NA	NA	1
15	3	157	3	"go_reward"	1	1	0	1	1	1	1	0.32082760008052	NA	1
15	3	158	2	"nogo_punish"	0	0	-1	0	0	1	-1	NA	0	1
15	3	159	2	"nogo_punish"	1	-1	0	0	0	1	0	NA	NA	1
15	3	160	3	"go_reward"	1	1	0	1	1	1	1	0.313051399774849	NA	1
15	3	161	4	"nogo_reward"	0	1	0	0	0	1	0	NA	NA	1
15	3	162	4	"nogo_reward"	1	0	1	0	0	1	1	NA	NA	1
15	3	163	1	"go_punish"	1	0	-1	1	1	1	0	0.411613099975511	NA	1
15	3	164	2	"nogo_punish"	1	-1	0	0	0	1	0	NA	NA	1
15	3	165	1	"go_punish"	1	0	-1	1	0	0	-1	NA	0	1
15	3	166	1	"go_punish"	1	0	-1	1	0	0	-1	NA	1	1
15	3	167	4	"nogo_reward"	0	1	0	0	0	1	0	NA	NA	1
15	3	168	4	"nogo_reward"	0	1	0	0	0	1	0	NA	NA	1
15	3	169	4	"nogo_reward"	1	0	1	0	0	1	1	NA	NA	1
15	3	170	3	"go_reward"	1	1	0	1	1	1	1	0.250562899978831	NA	1
15	3	171	4	"nogo_reward"	1	0	1	0	0	1	1	NA	NA	1
15	3	172	3	"go_reward"	0	0	1	1	1	1	0	0.279658600222319	NA	1
15	3	173	3	"go_reward"	0	0	1	1	1	1	0	0.940304599935189	NA	1
15	3	174	2	"nogo_punish"	1	-1	0	0	0	1	0	NA	NA	1
15	3	175	1	"go_punish"	0	-1	0	1	1	1	-1	0.792632800061256	1	1
15	3	176	3	"go_reward"	1	1	0	1	1	1	1	0.272178099956363	NA	1
15	3	177	4	"nogo_reward"	0	1	0	0	0	1	0	NA	NA	1
15	3	178	2	"nogo_punish"	0	0	-1	0	0	1	-1	NA	1	1
15	3	179	4	"nogo_reward"	1	0	1	0	0	1	1	NA	NA	1
15	3	180	4	"nogo_reward"	1	0	1	0	0	1	1	NA	NA	1
30	1	1	1	"nogo_reward"	1	0	1	0	0	1	1	NA	NA	1
30	1	2	2	"go_punish"	0	-1	0	1	1	1	-1	0.415689700050279	1	1
30	1	3	4	"go_reward"	0	0	1	1	1	1	0	0.357015900081024	NA	1
30	1	4	3	"nogo_punish"	1	-1	0	0	1	0	-1	0.316579399863258	0	1
30	1	5	2	"go_punish"	0	-1	0	1	1	1	-1	0.447302900021896	0	1
30	1	6	1	"nogo_reward"	1	0	1	0	1	0	0	0.281801499892026	NA	1
30	1	7	1	"nogo_reward"	1	0	1	0	1	0	0	0.301773099927232	NA	1
30	1	8	3	"nogo_punish"	1	-1	0	0	0	1	0	NA	NA	1
30	1	9	2	"go_punish"	0	-1	0	1	0	0	0	NA	NA	1
30	1	10	2	"go_punish"	1	0	-1	1	0	0	-1	NA	1	1
30	1	11	1	"nogo_reward"	1	0	1	0	0	1	1	NA	NA	1
30	1	12	2	"go_punish"	1	0	-1	1	1	1	0	0.286516100168228	NA	1
30	1	13	3	"nogo_punish"	1	-1	0	0	1	0	-1	0.298548500053585	0	1
30	1	14	2	"go_punish"	1	0	-1	1	0	0	-1	NA	1	1
30	1	15	4	"go_reward"	1	1	0	1	1	1	1	0.425303899915889	NA	1
30	1	16	4	"go_reward"	1	1	0	1	1	1	1	0.306230100104585	NA	1
30	1	17	2	"go_punish"	1	0	-1	1	0	0	-1	NA	0	1
30	1	18	3	"nogo_punish"	0	0	-1	0	0	1	-1	NA	0	1
30	1	19	4	"go_reward"	0	0	1	1	1	1	0	0.273834499996156	NA	1
30	1	20	4	"go_reward"	0	0	1	1	1	1	0	0.460595400072634	NA	1
30	1	21	3	"nogo_punish"	0	0	-1	0	1	0	0	0.311022100038827	NA	1
30	1	22	1	"nogo_reward"	0	1	0	0	1	0	1	0.270101000089198	NA	1
30	1	23	2	"go_punish"	1	0	-1	1	0	0	-1	NA	0	1
30	1	24	4	"go_reward"	1	1	0	1	1	1	1	0.307084199972451	NA	1
30	1	25	1	"nogo_reward"	1	0	1	0	1	0	0	0.330044199945405	NA	1
30	1	26	3	"nogo_punish"	1	-1	0	0	0	1	0	NA	NA	1
30	1	27	2	"go_punish"	1	0	-1	1	0	0	-1	NA	1	1
30	1	28	1	"nogo_reward"	1	0	1	0	1	0	0	0.359970699995756	NA	1
30	1	29	3	"nogo_punish"	1	-1	0	0	0	1	0	NA	NA	1
30	1	30	2	"go_punish"	0	-1	0	1	0	0	0	NA	NA	1
30	1	31	3	"nogo_punish"	0	0	-1	0	0	1	-1	NA	0	1
30	1	32	4	"go_reward"	1	1	0	1	1	1	1	0.324430799810216	NA	1
30	1	33	2	"go_punish"	0	-1	0	1	0	0	0	NA	NA	1
30	1	34	1	"nogo_reward"	1	0	1	0	1	0	0	0.69712630007416	NA	1
30	1	35	1	"nogo_reward"	0	1	0	0	1	0	1	0.350987699814141	NA	1
30	1	36	3	"nogo_punish"	1	-1	0	0	0	1	0	NA	NA	1
30	1	37	3	"nogo_punish"	1	-1	0	0	1	0	-1	0.900041199987754	0	1
30	1	38	3	"nogo_punish"	1	-1	0	0	0	1	0	NA	NA	1
30	1	39	1	"nogo_reward"	1	0	1	0	1	0	0	0.341261999914423	NA	1
30	1	40	4	"go_reward"	0	0	1	1	1	1	0	0.962558799888939	NA	1
30	1	41	4	"go_reward"	1	1	0	1	1	1	1	0.506882400019094	NA	1
30	1	42	1	"nogo_reward"	0	1	0	0	1	0	1	0.960899899946526	NA	1
30	1	43	1	"nogo_reward"	1	0	1	0	1	0	0	0.301217000000179	NA	1
30	1	44	2	"go_punish"	1	0	-1	1	1	1	0	0.644007300026715	NA	1
30	1	45	2	"go_punish"	0	-1	0	1	0	0	0	NA	NA	1
30	1	46	4	"go_reward"	1	1	0	1	0	0	0	NA	NA	1
30	1	47	2	"go_punish"	1	0	-1	1	0	0	-1	NA	0	1
30	1	48	3	"nogo_punish"	1	-1	0	0	1	0	-1	0.624444599961862	0	1
30	1	49	4	"go_reward"	1	1	0	1	1	1	1	0.349270399892703	NA	1
30	1	50	4	"go_reward"	1	1	0	1	1	1	1	0.55646299989894	NA	1
30	1	51	3	"nogo_punish"	0	0	-1	0	1	0	0	0.345825799973682	NA	1
30	1	52	4	"go_reward"	1	1	0	1	1	1	1	0.700954800006002	NA	1
30	1	53	4	"go_reward"	1	1	0	1	1	1	1	0.609429799951613	NA	1
30	1	54	2	"go_punish"	1	0	-1	1	0	0	-1	NA	0	1
30	1	55	4	"go_reward"	1	1	0	1	1	1	1	0.760487899882719	NA	1
30	1	56	3	"nogo_punish"	1	-1	0	0	0	1	0	NA	NA	1
30	1	57	1	"nogo_reward"	1	0	1	0	1	0	0	0.422596400137991	NA	1
30	1	58	3	"nogo_punish"	1	-1	0	0	0	1	0	NA	NA	1
30	1	59	1	"nogo_reward"	0	1	0	0	1	0	1	0.643592800013721	NA	1
30	1	60	1	"nogo_reward"	1	0	1	0	1	0	0	0.384551099967211	NA	1
30	2	61	4	"go_reward"	1	1	0	1	0	0	0	NA	NA	1
30	2	62	3	"nogo_punish"	1	-1	0	0	0	1	0	NA	NA	1
30	2	63	4	"go_reward"	1	1	0	1	1	1	1	0.42151809995994	NA	1
30	2	64	1	"nogo_reward"	1	0	1	0	1	0	0	0.328010499943048	NA	1
30	2	65	4	"go_reward"	0	0	1	1	1	1	0	0.665963199920952	NA	1
30	2	66	2	"go_punish"	1	0	-1	1	0	0	-1	NA	1	1
30	2	67	4	"go_reward"	0	0	1	1	1	1	0	0.450239700032398	NA	1
30	2	68	3	"nogo_punish"	1	-1	0	0	0	1	0	NA	NA	1
30	2	69	1	"nogo_reward"	1	0	1	0	1	0	0	0.365927000064403	NA	1
30	2	70	3	"nogo_punish"	1	-1	0	0	0	1	0	NA	NA	1
30	2	71	2	"go_punish"	1	0	-1	1	0	0	-1	NA	1	1
30	2	72	2	"go_punish"	1	0	-1	1	0	0	-1	NA	0	1
30	2	73	3	"nogo_punish"	1	-1	0	0	0	1	0	NA	NA	1
30	2	74	2	"go_punish"	1	0	-1	1	0	0	-1	NA	0	1
30	2	75	2	"go_punish"	1	0	-1	1	0	0	-1	NA	0	1
30	2	76	3	"nogo_punish"	0	0	-1	0	0	1	-1	NA	0	1
30	2	77	4	"go_reward"	1	1	0	1	1	1	1	0.793245400069281	NA	1
30	2	78	2	"go_punish"	1	0	-1	1	0	0	-1	NA	0	1
30	2	79	1	"nogo_reward"	1	0	1	0	1	0	0	0.569995700148866	NA	1
30	2	80	3	"nogo_punish"	0	0	-1	0	0	1	-1	NA	0	1
30	2	81	2	"go_punish"	1	0	-1	1	0	0	-1	NA	0	1
30	2	82	2	"go_punish"	1	0	-1	1	0	0	-1	NA	0	1
30	2	83	2	"go_punish"	1	0	-1	1	0	0	-1	NA	1	1
30	2	84	2	"go_punish"	1	0	-1	1	0	0	-1	NA	1	1
30	2	85	3	"nogo_punish"	0	0	-1	0	0	1	-1	NA	0	1
30	2	86	2	"go_punish"	1	0	-1	1	0	0	-1	NA	1	1
30	2	87	1	"nogo_reward"	1	0	1	0	0	1	1	NA	NA	1
30	2	88	2	"go_punish"	0	-1	0	1	0	0	0	NA	NA	1
30	2	89	4	"go_reward"	0	0	1	1	0	0	1	NA	NA	1
30	2	90	3	"nogo_punish"	1	-1	0	0	0	1	0	NA	NA	1
30	2	91	1	"nogo_reward"	1	0	1	0	1	0	0	0.78399659995921	NA	1
30	2	92	2	"go_punish"	1	0	-1	1	0	0	-1	NA	1	1
30	2	93	4	"go_reward"	1	1	0	1	1	1	1	0.319400599924847	NA	1
30	2	94	3	"nogo_punish"	0	0	-1	0	0	1	-1	NA	0	1
30	2	95	4	"go_reward"	1	1	0	1	1	1	1	0.298127599991858	NA	1
30	2	96	4	"go_reward"	1	1	0	1	1	1	1	0.333278700010851	NA	1
30	2	97	4	"go_reward"	1	1	0	1	1	1	1	0.499734600074589	NA	1
30	2	98	4	"go_reward"	1	1	0	1	1	1	1	0.354491499951109	NA	1
30	2	99	2	"go_punish"	1	0	-1	1	0	0	-1	NA	0	1
30	2	100	3	"nogo_punish"	1	-1	0	0	0	1	0	NA	NA	1
30	2	101	1	"nogo_reward"	0	1	0	0	1	0	1	0.298739399993792	NA	1
30	2	102	1	"nogo_reward"	0	1	0	0	1	0	1	0.423355499980971	NA	1
30	2	103	1	"nogo_reward"	1	0	1	0	1	0	0	0.299693499924615	NA	1
30	2	104	4	"go_reward"	1	1	0	1	1	1	1	0.280978499911726	NA	1
30	2	105	3	"nogo_punish"	0	0	-1	0	0	1	-1	NA	1	1
30	2	106	3	"nogo_punish"	0	0	-1	0	0	1	-1	NA	0	1
30	2	107	1	"nogo_reward"	1	0	1	0	1	0	0	0.476218299940229	NA	1
30	2	108	3	"nogo_punish"	1	-1	0	0	1	0	-1	0.279314799932763	0	1
30	2	109	3	"nogo_punish"	0	0	-1	0	0	1	-1	NA	0	1
30	2	110	1	"nogo_reward"	1	0	1	0	1	0	0	0.304151399992406	NA	1
30	2	111	4	"go_reward"	0	0	1	1	1	1	0	0.315010800026357	NA	1
30	2	112	1	"nogo_reward"	1	0	1	0	1	0	0	0.28606819990091	NA	1
30	2	113	3	"nogo_punish"	1	-1	0	0	1	0	-1	0.731550299795344	0	1
30	2	114	4	"go_reward"	0	0	1	1	1	1	0	0.36256210017018	NA	1
30	2	115	2	"go_punish"	0	-1	0	1	0	0	0	NA	NA	1
30	2	116	1	"nogo_reward"	1	0	1	0	1	0	0	0.311098600039259	NA	1
30	2	117	1	"nogo_reward"	0	1	0	0	1	0	1	0.349663199856877	NA	1
30	2	118	1	"nogo_reward"	0	1	0	0	1	0	1	0.36497260001488	NA	1
30	2	119	1	"nogo_reward"	1	0	1	0	0	1	1	NA	NA	1
30	2	120	4	"go_reward"	1	1	0	1	1	1	1	0.273293199948967	NA	1
30	3	121	4	"go_reward"	1	1	0	1	1	1	1	0.323177800048143	NA	1
30	3	122	2	"go_punish"	1	0	-1	1	0	0	-1	NA	1	1
30	3	123	2	"go_punish"	1	0	-1	1	0	0	-1	NA	0	1
30	3	124	3	"nogo_punish"	0	0	-1	0	1	0	0	0.318920000223443	NA	1
30	3	125	3	"nogo_punish"	0	0	-1	0	0	1	-1	NA	1	1
30	3	126	2	"go_punish"	1	0	-1	1	0	0	-1	NA	0	1
30	3	127	3	"nogo_punish"	1	-1	0	0	0	1	0	NA	NA	1
30	3	128	3	"nogo_punish"	1	-1	0	0	0	1	0	NA	NA	1
30	3	129	1	"nogo_reward"	1	0	1	0	1	0	0	0.301393799949437	NA	1
30	3	130	1	"nogo_reward"	1	0	1	0	1	0	0	0.342898799804971	NA	1
30	3	131	1	"nogo_reward"	1	0	1	0	1	0	0	0.485845199786127	NA	1
30	3	132	1	"nogo_reward"	1	0	1	0	1	0	0	0.329822300001979	NA	1
30	3	133	3	"nogo_punish"	0	0	-1	0	0	1	-1	NA	1	1
30	3	134	1	"nogo_reward"	1	0	1	0	1	0	0	0.368263900047168	NA	1
30	3	135	4	"go_reward"	0	0	1	1	1	1	0	0.514280100120232	NA	1
30	3	136	2	"go_punish"	1	0	-1	1	0	0	-1	NA	1	1
30	3	137	3	"nogo_punish"	1	-1	0	0	0	1	0	NA	NA	1
30	3	138	4	"go_reward"	1	1	0	1	1	1	1	0.793061700183898	NA	1
30	3	139	2	"go_punish"	0	-1	0	1	0	0	0	NA	NA	1
30	3	140	1	"nogo_reward"	0	1	0	0	1	0	1	0.309086400084198	NA	1
30	3	141	1	"nogo_reward"	1	0	1	0	0	1	1	NA	NA	1
30	3	142	3	"nogo_punish"	1	-1	0	0	0	1	0	NA	NA	1
30	3	143	2	"go_punish"	1	0	-1	1	0	0	-1	NA	1	1
30	3	144	1	"nogo_reward"	1	0	1	0	1	0	0	0.363595600007102	NA	1
30	3	145	3	"nogo_punish"	1	-1	0	0	0	1	0	NA	NA	1
30	3	146	4	"go_reward"	1	1	0	1	1	1	1	0.314255999866873	NA	1
30	3	147	1	"nogo_reward"	1	0	1	0	1	0	0	0.311785400146618	NA	1
30	3	148	4	"go_reward"	0	0	1	1	1	1	0	0.450250099878758	NA	1
30	3	149	4	"go_reward"	1	1	0	1	1	1	1	0.561714500188828	NA	1
30	3	150	1	"nogo_reward"	0	1	0	0	1	0	1	0.714890999952331	NA	1
30	3	151	2	"go_punish"	1	0	-1	1	0	0	-1	NA	0	1
30	3	152	3	"nogo_punish"	1	-1	0	0	0	1	0	NA	NA	1
30	3	153	4	"go_reward"	1	1	0	1	1	1	1	0.623546999879181	NA	1
30	3	154	2	"go_punish"	1	0	-1	1	0	0	-1	NA	0	1
30	3	155	4	"go_reward"	1	1	0	1	1	1	1	0.357797400094569	NA	1
30	3	156	2	"go_punish"	0	-1	0	1	0	0	0	NA	NA	1
30	3	157	3	"nogo_punish"	1	-1	0	0	0	1	0	NA	NA	1
30	3	158	3	"nogo_punish"	0	0	-1	0	0	1	-1	NA	0	1
30	3	159	4	"go_reward"	0	0	1	1	1	1	0	0.529442300088704	NA	1
30	3	160	1	"nogo_reward"	0	1	0	0	1	0	1	0.313140800222754	NA	1
30	3	161	1	"nogo_reward"	0	1	0	0	1	0	1	0.303003400098532	NA	1
30	3	162	2	"go_punish"	1	0	-1	1	0	0	-1	NA	0	1
30	3	163	2	"go_punish"	1	0	-1	1	0	0	-1	NA	1	1
30	3	164	1	"nogo_reward"	0	1	0	0	1	0	1	0.795411499915645	NA	1
30	3	165	2	"go_punish"	1	0	-1	1	0	0	-1	NA	0	1
30	3	166	4	"go_reward"	0	0	1	1	1	1	0	0.339886300032958	NA	1
30	3	167	2	"go_punish"	0	-1	0	1	0	0	0	NA	NA	1
30	3	168	2	"go_punish"	1	0	-1	1	0	0	-1	NA	1	1
30	3	169	4	"go_reward"	1	1	0	1	1	1	1	0.0303251999430358	NA	1
30	3	170	3	"nogo_punish"	1	-1	0	0	0	1	0	NA	NA	1
30	3	171	3	"nogo_punish"	1	-1	0	0	0	1	0	NA	NA	1
30	3	172	3	"nogo_punish"	0	0	-1	0	0	1	-1	NA	0	1
30	3	173	4	"go_reward"	1	1	0	1	1	1	1	0.458446800010279	NA	1
30	3	174	1	"nogo_reward"	1	0	1	0	1	0	0	0.446964700007811	NA	1
30	3	175	4	"go_reward"	1	1	0	1	1	1	1	0.352977599948645	NA	1
30	3	176	4	"go_reward"	1	1	0	1	1	1	1	0.349018999841064	NA	1
30	3	177	3	"nogo_punish"	1	-1	0	0	0	1	0	NA	NA	1
30	3	178	2	"go_punish"	1	0	-1	1	0	0	-1	NA	1	1
30	3	179	4	"go_reward"	1	1	0	1	0	0	0	NA	NA	1
30	3	180	1	"nogo_reward"	0	1	0	0	1	0	1	0.273181499913335	NA	1
54	1	1	4	"go_reward"	1	1	0	1	1	1	1	0.860579000320286	NA	1
54	1	2	2	"go_punish"	1	0	-1	1	0	0	-1	NA	1	1
54	1	3	1	"nogo_reward"	1	0	1	0	1	0	0	0.643281300086528	NA	1
54	1	4	3	"nogo_punish"	0	0	-1	0	0	1	-1	NA	1	1
54	1	5	4	"go_reward"	0	0	1	1	0	0	1	NA	NA	1
54	1	6	4	"go_reward"	1	1	0	1	0	0	0	NA	NA	1
54	1	7	3	"nogo_punish"	1	-1	0	0	1	0	-1	0.258815899956971	1	1
54	1	8	3	"nogo_punish"	1	-1	0	0	1	0	-1	0.556804200168699	0	1
54	1	9	1	"nogo_reward"	0	1	0	0	0	1	0	NA	NA	1
54	1	10	2	"go_punish"	0	-1	0	1	1	1	-1	0.279510300140828	0	1
54	1	11	2	"go_punish"	1	0	-1	1	1	1	0	0.330241899937391	NA	1
54	1	12	3	"nogo_punish"	1	-1	0	0	0	1	0	NA	NA	1
54	1	13	2	"go_punish"	1	0	-1	1	1	1	0	0.393085899762809	NA	1
54	1	14	4	"go_reward"	1	1	0	1	0	0	0	NA	NA	1
54	1	15	3	"nogo_punish"	0	0	-1	0	1	0	0	0.282371199689806	NA	1
54	1	16	4	"go_reward"	1	1	0	1	0	0	0	NA	NA	1
54	1	17	1	"nogo_reward"	0	1	0	0	0	1	0	NA	NA	1
54	1	18	1	"nogo_reward"	0	1	0	0	1	0	1	0.24776679975912	NA	1
54	1	19	2	"go_punish"	1	0	-1	1	1	1	0	0.26358380028978	NA	1
54	1	20	1	"nogo_reward"	1	0	1	0	1	0	0	0.0690391999669373	NA	1
54	1	21	2	"go_punish"	1	0	-1	1	1	1	0	0.271519999951124	NA	1
54	1	22	1	"nogo_reward"	0	1	0	0	1	0	1	0.182743200100958	NA	1
54	1	23	3	"nogo_punish"	1	-1	0	0	0	1	0	NA	NA	1
54	1	24	1	"nogo_reward"	1	0	1	0	1	0	0	0.560291199944913	NA	1
54	1	25	3	"nogo_punish"	1	-1	0	0	0	1	0	NA	NA	1
54	1	26	4	"go_reward"	0	0	1	1	0	0	1	NA	NA	1
54	1	27	2	"go_punish"	0	-1	0	1	1	1	-1	0.38373940018937	0	1
54	1	28	1	"nogo_reward"	1	0	1	0	1	0	0	0.231321199797094	NA	1
54	1	29	3	"nogo_punish"	1	-1	0	0	0	1	0	NA	NA	1
54	1	30	1	"nogo_reward"	1	0	1	0	1	0	0	0.340024500153959	NA	1
54	1	31	4	"go_reward"	1	1	0	1	0	0	0	NA	NA	1
54	1	32	2	"go_punish"	0	-1	0	1	1	1	-1	0.284112399909645	0	1
54	1	33	2	"go_punish"	1	0	-1	1	1	1	0	0.403693400323391	NA	1
54	1	34	3	"nogo_punish"	0	0	-1	0	0	1	-1	NA	0	1
54	1	35	1	"nogo_reward"	0	1	0	0	1	0	1	0.394724200014025	NA	1
54	1	36	1	"nogo_reward"	1	0	1	0	1	0	0	0.251224299892783	NA	1
54	1	37	3	"nogo_punish"	0	0	-1	0	0	1	-1	NA	1	1
54	1	38	3	"nogo_punish"	1	-1	0	0	0	1	0	NA	NA	1
54	1	39	3	"nogo_punish"	1	-1	0	0	1	0	-1	0.6504668998532	1	1
54	1	40	1	"nogo_reward"	1	0	1	0	1	0	0	0.322639500256628	NA	1
54	1	41	4	"go_reward"	0	0	1	1	0	0	1	NA	NA	1
54	1	42	4	"go_reward"	1	1	0	1	0	0	0	NA	NA	1
54	1	43	1	"nogo_reward"	1	0	1	0	1	0	0	0.61722829984501	NA	1
54	1	44	4	"go_reward"	1	1	0	1	0	0	0	NA	NA	1
54	1	45	2	"go_punish"	0	-1	0	1	1	1	-1	0.296139399986714	0	1
54	1	46	2	"go_punish"	1	0	-1	1	1	1	0	0.963930000085384	NA	1
54	1	47	3	"nogo_punish"	1	-1	0	0	0	1	0	NA	NA	1
54	1	48	1	"nogo_reward"	1	0	1	0	1	0	0	0.480566799640656	NA	1
54	1	49	2	"go_punish"	1	0	-1	1	1	1	0	0.430930000264198	NA	1
54	1	50	4	"go_reward"	0	0	1	1	0	0	1	NA	NA	1
54	1	51	4	"go_reward"	1	1	0	1	0	0	0	NA	NA	1
54	1	52	4	"go_reward"	1	1	0	1	0	0	0	NA	NA	1
54	1	53	2	"go_punish"	1	0	-1	1	1	1	0	0.574630299583077	NA	1
54	1	54	1	"nogo_reward"	1	0	1	0	1	0	0	0.556043399963528	NA	1
54	1	55	2	"go_punish"	1	0	-1	1	1	1	0	0.287132899742573	NA	1
54	1	56	4	"go_reward"	1	1	0	1	0	0	0	NA	NA	1
54	1	57	4	"go_reward"	0	0	1	1	0	0	1	NA	NA	1
54	1	58	3	"nogo_punish"	1	-1	0	0	0	1	0	NA	NA	1
54	1	59	3	"nogo_punish"	1	-1	0	0	0	1	0	NA	NA	1
54	1	60	2	"go_punish"	1	0	-1	1	1	1	0	0.281816000118852	NA	1
54	2	61	1	"nogo_reward"	1	0	1	0	0	1	1	NA	NA	1
54	2	62	3	"nogo_punish"	0	0	-1	0	0	1	-1	NA	1	1
54	2	63	1	"nogo_reward"	0	1	0	0	1	0	1	0.0656035998836159	NA	1
54	2	64	4	"go_reward"	0	0	1	1	0	0	1	NA	NA	1
54	2	65	4	"go_reward"	1	1	0	1	0	0	0	NA	NA	1
54	2	66	3	"nogo_punish"	1	-1	0	0	0	1	0	NA	NA	1
54	2	67	4	"go_reward"	1	1	0	1	0	0	0	NA	NA	1
54	2	68	2	"go_punish"	1	0	-1	1	0	0	-1	NA	1	1
54	2	69	2	"go_punish"	1	0	-1	1	1	1	0	0.270016600377858	NA	1
54	2	70	3	"nogo_punish"	1	-1	0	0	0	1	0	NA	NA	1
54	2	71	2	"go_punish"	1	0	-1	1	1	1	0	0.290781499817967	NA	1
54	2	72	1	"nogo_reward"	1	0	1	0	1	0	0	0.318083400372416	NA	1
54	2	73	3	"nogo_punish"	1	-1	0	0	0	1	0	NA	NA	1
54	2	74	1	"nogo_reward"	0	1	0	0	1	0	1	0.311253099702299	NA	1
54	2	75	2	"go_punish"	1	0	-1	1	1	1	0	0.224223100114614	NA	1
54	2	76	4	"go_reward"	0	0	1	1	0	0	1	NA	NA	1
54	2	77	3	"nogo_punish"	1	-1	0	0	0	1	0	NA	NA	1
54	2	78	2	"go_punish"	1	0	-1	1	0	0	-1	NA	1	1
54	2	79	2	"go_punish"	0	-1	0	1	1	1	-1	0.273273000027984	1	1
54	2	80	1	"nogo_reward"	1	0	1	0	1	0	0	0.301194899715483	NA	1
54	2	81	4	"go_reward"	1	1	0	1	0	0	0	NA	NA	1
54	2	82	3	"nogo_punish"	0	0	-1	0	0	1	-1	NA	1	1
54	2	83	2	"go_punish"	1	0	-1	1	1	1	0	0.363545499742031	NA	1
54	2	84	3	"nogo_punish"	0	0	-1	0	0	1	-1	NA	0	1
54	2	85	2	"go_punish"	1	0	-1	1	1	1	0	0.308683100156486	NA	1
54	2	86	2	"go_punish"	1	0	-1	1	1	1	0	0.25358649995178	NA	1
54	2	87	4	"go_reward"	1	1	0	1	0	0	0	NA	NA	1
54	2	88	3	"nogo_punish"	0	0	-1	0	0	1	-1	NA	1	1
54	2	89	2	"go_punish"	1	0	-1	1	1	1	0	0.34015930024907	NA	1
54	2	90	2	"go_punish"	1	0	-1	1	0	0	-1	NA	0	1
54	2	91	1	"nogo_reward"	1	0	1	0	0	1	1	NA	NA	1
54	2	92	4	"go_reward"	1	1	0	1	0	0	0	NA	NA	1
54	2	93	3	"nogo_punish"	0	0	-1	0	1	0	0	0.247108799871057	NA	1
54	2	94	1	"nogo_reward"	0	1	0	0	0	1	0	NA	NA	1
54	2	95	4	"go_reward"	1	1	0	1	0	0	0	NA	NA	1
54	2	96	3	"nogo_punish"	1	-1	0	0	1	0	-1	0.322695999871939	0	1
54	2	97	3	"nogo_punish"	0	0	-1	0	0	1	-1	NA	0	1
54	2	98	1	"nogo_reward"	1	0	1	0	1	0	0	0.347963100299239	NA	1
54	2	99	4	"go_reward"	1	1	0	1	0	0	0	NA	NA	1
54	2	100	1	"nogo_reward"	1	0	1	0	0	1	1	NA	NA	1
54	2	101	3	"nogo_punish"	1	-1	0	0	1	0	-1	0.275533400010318	1	1
54	2	102	3	"nogo_punish"	0	0	-1	0	0	1	-1	NA	0	1
54	2	103	1	"nogo_reward"	1	0	1	0	0	1	1	NA	NA	1
54	2	104	2	"go_punish"	1	0	-1	1	0	0	-1	NA	0	1
54	2	105	4	"go_reward"	1	1	0	1	0	0	0	NA	NA	1
54	2	106	1	"nogo_reward"	1	0	1	0	0	1	1	NA	NA	1
54	2	107	4	"go_reward"	1	1	0	1	1	1	1	0.252386000007391	NA	1
54	2	108	2	"go_punish"	1	0	-1	1	0	0	-1	NA	0	1
54	2	109	1	"nogo_reward"	1	0	1	0	0	1	1	NA	NA	1
54	2	110	4	"go_reward"	1	1	0	1	1	1	1	0.25301199965179	NA	1
54	2	111	1	"nogo_reward"	0	1	0	0	0	1	0	NA	NA	1
54	2	112	1	"nogo_reward"	1	0	1	0	0	1	1	NA	NA	1
54	2	113	1	"nogo_reward"	1	0	1	0	0	1	1	NA	NA	1
54	2	114	2	"go_punish"	0	-1	0	1	0	0	0	NA	NA	1
54	2	115	4	"go_reward"	0	0	1	1	1	1	0	0.339071999769658	NA	1
54	2	116	2	"go_punish"	1	0	-1	1	0	0	-1	NA	0	1
54	2	117	3	"nogo_punish"	1	-1	0	0	1	0	-1	0.285611399915069	0	1
54	2	118	3	"nogo_punish"	1	-1	0	0	1	0	-1	0.315163599792868	0	1
54	2	119	4	"go_reward"	0	0	1	1	0	0	1	NA	NA	1
54	2	120	4	"go_reward"	0	0	1	1	1	1	0	0.515361899975687	NA	1
54	3	121	2	"go_punish"	1	0	-1	1	1	1	0	0.251843700185418	NA	1
54	3	122	2	"go_punish"	1	0	-1	1	0	0	-1	NA	1	1
54	3	123	4	"go_reward"	1	1	0	1	1	1	1	0.361446400173008	NA	1
54	3	124	2	"go_punish"	1	0	-1	1	1	1	0	0.315294200088829	NA	1
54	3	125	3	"nogo_punish"	1	-1	0	0	0	1	0	NA	NA	1
54	3	126	3	"nogo_punish"	0	0	-1	0	0	1	-1	NA	0	1
54	3	127	3	"nogo_punish"	0	0	-1	0	0	1	-1	NA	0	1
54	3	128	1	"nogo_reward"	0	1	0	0	0	1	0	NA	NA	1
54	3	129	3	"nogo_punish"	0	0	-1	0	0	1	-1	NA	0	1
54	3	130	3	"nogo_punish"	1	-1	0	0	1	0	-1	0.273969000205398	1	1
54	3	131	4	"go_reward"	1	1	0	1	1	1	1	0.285701999906451	NA	1
54	3	132	3	"nogo_punish"	1	-1	0	0	0	1	0	NA	NA	1
54	3	133	4	"go_reward"	1	1	0	1	1	1	1	0.308562600053847	NA	1
54	3	134	3	"nogo_punish"	0	0	-1	0	0	1	-1	NA	1	1
54	3	135	4	"go_reward"	0	0	1	1	1	1	0	0.33036440005526	NA	1
54	3	136	1	"nogo_reward"	1	0	1	0	0	1	1	NA	NA	1
54	3	137	3	"nogo_punish"	1	-1	0	0	0	1	0	NA	NA	1
54	3	138	2	"go_punish"	1	0	-1	1	1	1	0	0.36414759978652	NA	1
54	3	139	1	"nogo_reward"	1	0	1	0	0	1	1	NA	NA	1
54	3	140	3	"nogo_punish"	0	0	-1	0	0	1	-1	NA	0	1
54	3	141	1	"nogo_reward"	1	0	1	0	0	1	1	NA	NA	1
54	3	142	3	"nogo_punish"	0	0	-1	0	0	1	-1	NA	0	1
54	3	143	3	"nogo_punish"	1	-1	0	0	0	1	0	NA	NA	1
54	3	144	4	"go_reward"	1	1	0	1	1	1	1	0.328867300413549	NA	1
54	3	145	1	"nogo_reward"	0	1	0	0	0	1	0	NA	NA	1
54	3	146	2	"go_punish"	1	0	-1	1	1	1	0	0.283110999967903	NA	1
54	3	147	4	"go_reward"	0	0	1	1	1	1	0	0.258280000183731	NA	1
54	3	148	4	"go_reward"	1	1	0	1	1	1	1	0.282818200066686	NA	1
54	3	149	2	"go_punish"	1	0	-1	1	1	1	0	0.41391979996115	NA	1
54	3	150	2	"go_punish"	1	0	-1	1	1	1	0	0.251725200098008	NA	1
54	3	151	4	"go_reward"	1	1	0	1	1	1	1	0.630309900268912	NA	1
54	3	152	1	"nogo_reward"	1	0	1	0	0	1	1	NA	NA	1
54	3	153	1	"nogo_reward"	1	0	1	0	0	1	1	NA	NA	1
54	3	154	2	"go_punish"	1	0	-1	1	1	1	0	0.259984400123358	NA	1
54	3	155	3	"nogo_punish"	1	-1	0	0	0	1	0	NA	NA	1
54	3	156	4	"go_reward"	0	0	1	1	1	1	0	0.458806000184268	NA	1
54	3	157	3	"nogo_punish"	0	0	-1	0	0	1	-1	NA	0	1
54	3	158	2	"go_punish"	1	0	-1	1	1	1	0	0.274592299945652	NA	1
54	3	159	1	"nogo_reward"	1	0	1	0	0	1	1	NA	NA	1
54	3	160	3	"nogo_punish"	1	-1	0	0	0	1	0	NA	NA	1
54	3	161	3	"nogo_punish"	1	-1	0	0	0	1	0	NA	NA	1
54	3	162	4	"go_reward"	1	1	0	1	1	1	1	0.322851799894124	NA	1
54	3	163	4	"go_reward"	1	1	0	1	1	1	1	0.0230471999384462	NA	1
54	3	164	1	"nogo_reward"	0	1	0	0	0	1	0	NA	NA	1
54	3	165	4	"go_reward"	0	0	1	1	1	1	0	0.25900510000065	NA	1
54	3	166	4	"go_reward"	1	1	0	1	1	1	1	0.297443999908864	NA	1
54	3	167	2	"go_punish"	1	0	-1	1	0	0	-1	NA	0	1
54	3	168	2	"go_punish"	0	-1	0	1	1	1	-1	0.545014899689704	1	1
54	3	169	2	"go_punish"	1	0	-1	1	1	1	0	0.556454999838024	NA	1
54	3	170	1	"nogo_reward"	1	0	1	0	0	1	1	NA	NA	1
54	3	171	1	"nogo_reward"	0	1	0	0	0	1	0	NA	NA	1
54	3	172	1	"nogo_reward"	1	0	1	0	0	1	1	NA	NA	1
54	3	173	4	"go_reward"	1	1	0	1	1	1	1	0.395286199636757	NA	1
54	3	174	1	"nogo_reward"	0	1	0	0	0	1	0	NA	NA	1
54	3	175	2	"go_punish"	1	0	-1	1	1	1	0	0.667743599973619	NA	1
54	3	176	4	"go_reward"	1	1	0	1	1	1	1	0.447024299763143	NA	1
54	3	177	2	"go_punish"	1	0	-1	1	0	0	-1	NA	0	1
54	3	178	1	"nogo_reward"	1	0	1	0	0	1	1	NA	NA	1
54	3	179	2	"go_punish"	0	-1	0	1	1	1	-1	0.502446200232953	1	1
54	3	180	1	"nogo_reward"	1	0	1	0	0	1	1	NA	NA	1
43	1	1	2	"nogo_punish"	0	0	-1	0	1	0	0	0.701871799974469	NA	1
43	1	2	3	"go_reward"	1	1	0	1	1	1	1	0.530154300009599	NA	1
43	1	3	2	"nogo_punish"	1	-1	0	0	1	0	-1	0.371639000019059	1	1
43	1	4	3	"go_reward"	1	1	0	1	1	1	1	0.364588200027356	NA	1
43	1	5	4	"nogo_reward"	1	0	1	0	0	1	1	NA	NA	1
43	1	6	3	"go_reward"	1	1	0	1	1	1	1	0.400934999983292	NA	1
43	1	7	4	"nogo_reward"	1	0	1	0	0	1	1	NA	NA	1
43	1	8	4	"nogo_reward"	1	0	1	0	0	1	1	NA	NA	1
43	1	9	4	"nogo_reward"	1	0	1	0	1	0	0	0.670456599997124	NA	1
43	1	10	4	"nogo_reward"	1	0	1	0	0	1	1	NA	NA	1
43	1	11	3	"go_reward"	1	1	0	1	1	1	1	0.283849500003271	NA	1
43	1	12	3	"go_reward"	1	1	0	1	1	1	1	0.768292200024007	NA	1
43	1	13	1	"go_punish"	0	-1	0	1	0	0	0	NA	NA	1
43	1	14	2	"nogo_punish"	1	-1	0	0	1	0	-1	0.369101699994644	0	1
43	1	15	2	"nogo_punish"	0	0	-1	0	1	0	0	0.851422800013097	NA	1
43	1	16	3	"go_reward"	1	1	0	1	1	1	1	0.388121399999363	NA	1
43	1	17	4	"nogo_reward"	1	0	1	0	0	1	1	NA	NA	1
43	1	18	4	"nogo_reward"	1	0	1	0	0	1	1	NA	NA	1
43	1	19	2	"nogo_punish"	0	0	-1	0	1	0	0	0.365466899995226	NA	1
43	1	20	4	"nogo_reward"	1	0	1	0	0	1	1	NA	NA	1
43	1	21	3	"go_reward"	0	0	1	1	1	1	0	0.354718199989293	NA	1
43	1	22	1	"go_punish"	1	0	-1	1	0	0	-1	NA	0	1
43	1	23	3	"go_reward"	1	1	0	1	1	1	1	0.383845399977872	NA	1
43	1	24	3	"go_reward"	0	0	1	1	1	1	0	0.461758699995698	NA	1
43	1	25	3	"go_reward"	1	1	0	1	1	1	1	0.448137200000929	NA	1
43	1	26	4	"nogo_reward"	1	0	1	0	0	1	1	NA	NA	1
43	1	27	4	"nogo_reward"	1	0	1	0	0	1	1	NA	NA	1
43	1	28	1	"go_punish"	1	0	-1	1	0	0	-1	NA	1	1
43	1	29	3	"go_reward"	1	1	0	1	1	1	1	0.798342699999921	NA	1
43	1	30	1	"go_punish"	0	-1	0	1	0	0	0	NA	NA	1
43	1	31	1	"go_punish"	0	-1	0	1	0	0	0	NA	NA	1
43	1	32	2	"nogo_punish"	1	-1	0	0	1	0	-1	0.475995999993756	1	1
43	1	33	2	"nogo_punish"	0	0	-1	0	1	0	0	0.365371299994877	NA	1
43	1	34	3	"go_reward"	1	1	0	1	1	1	1	0.2851903999981	NA	1
43	1	35	1	"go_punish"	1	0	-1	1	0	0	-1	NA	0	1
43	1	36	4	"nogo_reward"	1	0	1	0	0	1	1	NA	NA	1
43	1	37	2	"nogo_punish"	0	0	-1	0	1	0	0	0.277357799990568	NA	1
43	1	38	3	"go_reward"	1	1	0	1	1	1	1	0.268984500027727	NA	1
43	1	39	1	"go_punish"	1	0	-1	1	0	0	-1	NA	1	1
43	1	40	4	"nogo_reward"	1	0	1	0	0	1	1	NA	NA	1
43	1	41	1	"go_punish"	0	-1	0	1	0	0	0	NA	NA	1
43	1	42	2	"nogo_punish"	1	-1	0	0	1	0	-1	0.34601969999494	0	1
43	1	43	1	"go_punish"	1	0	-1	1	0	0	-1	NA	0	1
43	1	44	1	"go_punish"	1	0	-1	1	0	0	-1	NA	0	1
43	1	45	1	"go_punish"	0	-1	0	1	0	0	0	NA	NA	1
43	1	46	1	"go_punish"	1	0	-1	1	0	0	-1	NA	0	1
43	1	47	3	"go_reward"	1	1	0	1	1	1	1	0.352675000001909	NA	1
43	1	48	1	"go_punish"	0	-1	0	1	1	1	-1	0.313061900000321	0	1
43	1	49	3	"go_reward"	0	0	1	1	1	1	0	0.304301100026351	NA	1
43	1	50	2	"nogo_punish"	1	-1	0	0	1	0	-1	0.571897900023032	1	1
43	1	51	2	"nogo_punish"	0	0	-1	0	0	1	-1	NA	0	1
43	1	52	4	"nogo_reward"	0	1	0	0	0	1	0	NA	NA	1
43	1	53	4	"nogo_reward"	1	0	1	0	0	1	1	NA	NA	1
43	1	54	2	"nogo_punish"	1	-1	0	0	0	1	0	NA	NA	1
43	1	55	1	"go_punish"	1	0	-1	1	1	1	0	0.41590420002467	NA	1
43	1	56	4	"nogo_reward"	0	1	0	0	0	1	0	NA	NA	1
43	1	57	2	"nogo_punish"	1	-1	0	0	0	1	0	NA	NA	1
43	1	58	2	"nogo_punish"	1	-1	0	0	0	1	0	NA	NA	1
43	1	59	2	"nogo_punish"	1	-1	0	0	0	1	0	NA	NA	1
43	1	60	1	"go_punish"	0	-1	0	1	1	1	-1	0.552501099999063	0	1
43	2	61	3	"go_reward"	1	1	0	1	1	1	1	0.418652799999108	NA	1
43	2	62	2	"nogo_punish"	0	0	-1	0	0	1	-1	NA	1	1
43	2	63	3	"go_reward"	0	0	1	1	1	1	0	0.343729399988661	NA	1
43	2	64	1	"go_punish"	1	0	-1	1	1	1	0	0.428553100005956	NA	1
43	2	65	4	"nogo_reward"	1	0	1	0	0	1	1	NA	NA	1
43	2	66	3	"go_reward"	1	1	0	1	1	1	1	0.432086799992248	NA	1
43	2	67	4	"nogo_reward"	1	0	1	0	0	1	1	NA	NA	1
43	2	68	3	"go_reward"	1	1	0	1	1	1	1	0.337572300020838	NA	1
43	2	69	1	"go_punish"	1	0	-1	1	1	1	0	0.248785200004932	NA	1
43	2	70	4	"nogo_reward"	1	0	1	0	0	1	1	NA	NA	1
43	2	71	4	"nogo_reward"	0	1	0	0	0	1	0	NA	NA	1
43	2	72	4	"nogo_reward"	1	0	1	0	0	1	1	NA	NA	1
43	2	73	3	"go_reward"	1	1	0	1	0	0	0	NA	NA	1
43	2	74	2	"nogo_punish"	0	0	-1	0	0	1	-1	NA	0	1
43	2	75	4	"nogo_reward"	1	0	1	0	0	1	1	NA	NA	1
43	2	76	4	"nogo_reward"	1	0	1	0	0	1	1	NA	NA	1
43	2	77	3	"go_reward"	1	1	0	1	1	1	1	0.298897800006671	NA	1
43	2	78	3	"go_reward"	1	1	0	1	1	1	1	0.296483499987516	NA	1
43	2	79	1	"go_punish"	1	0	-1	1	1	1	0	0.30141129999538	NA	1
43	2	80	2	"nogo_punish"	1	-1	0	0	0	1	0	NA	NA	1
43	2	81	4	"nogo_reward"	0	1	0	0	0	1	0	NA	NA	1
43	2	82	1	"go_punish"	1	0	-1	1	1	1	0	0.39076589999604	NA	1
43	2	83	1	"go_punish"	1	0	-1	1	1	1	0	0.248510900011752	NA	1
43	2	84	3	"go_reward"	1	1	0	1	1	1	1	0.230497600015951	NA	1
43	2	85	2	"nogo_punish"	1	-1	0	0	0	1	0	NA	NA	1
43	2	86	2	"nogo_punish"	0	0	-1	0	0	1	-1	NA	0	1
43	2	87	3	"go_reward"	0	0	1	1	1	1	0	0.137365600006888	NA	1
43	2	88	3	"go_reward"	1	1	0	1	1	1	1	0.589108799991664	NA	1
43	2	89	2	"nogo_punish"	1	-1	0	0	0	1	0	NA	NA	1
43	2	90	1	"go_punish"	1	0	-1	1	1	1	0	0.279847400001017	NA	1
43	2	91	1	"go_punish"	1	0	-1	1	1	1	0	0.24546599999303	NA	1
43	2	92	1	"go_punish"	0	-1	0	1	1	1	-1	0.240108099998906	1	1
43	2	93	4	"nogo_reward"	1	0	1	0	0	1	1	NA	NA	1
43	2	94	1	"go_punish"	1	0	-1	1	1	1	0	0.405442299990682	NA	1
43	2	95	4	"nogo_reward"	0	1	0	0	0	1	0	NA	NA	1
43	2	96	1	"go_punish"	1	0	-1	1	1	1	0	0.354047600005288	NA	1
43	2	97	2	"nogo_punish"	1	-1	0	0	0	1	0	NA	NA	1
43	2	98	2	"nogo_punish"	1	-1	0	0	0	1	0	NA	NA	1
43	2	99	1	"go_punish"	0	-1	0	1	1	1	-1	0.343927700014319	0	1
43	2	100	2	"nogo_punish"	1	-1	0	0	0	1	0	NA	NA	1
43	2	101	4	"nogo_reward"	1	0	1	0	0	1	1	NA	NA	1
43	2	102	1	"go_punish"	1	0	-1	1	1	1	0	0.0942466999986209	NA	1
43	2	103	3	"go_reward"	1	1	0	1	1	1	1	0.518437499995343	NA	1
43	2	104	2	"nogo_punish"	0	0	-1	0	0	1	-1	NA	0	1
43	2	105	3	"go_reward"	1	1	0	1	1	1	1	0.386683300021105	NA	1
43	2	106	3	"go_reward"	1	1	0	1	1	1	1	0.317817400005879	NA	1
43	2	107	2	"nogo_punish"	0	0	-1	0	0	1	-1	NA	0	1
43	2	108	2	"nogo_punish"	1	-1	0	0	0	1	0	NA	NA	1
43	2	109	1	"go_punish"	0	-1	0	1	1	1	-1	0.175506400002632	0	1
43	2	110	3	"go_reward"	0	0	1	1	1	1	0	0.261127600009786	NA	1
43	2	111	2	"nogo_punish"	1	-1	0	0	0	1	0	NA	NA	1
43	2	112	2	"nogo_punish"	1	-1	0	0	0	1	0	NA	NA	1
43	2	113	1	"go_punish"	0	-1	0	1	1	1	-1	0.361296500021126	0	1
43	2	114	1	"go_punish"	0	-1	0	1	1	1	-1	0.241878700006055	1	1
43	2	115	4	"nogo_reward"	1	0	1	0	0	1	1	NA	NA	1
43	2	116	2	"nogo_punish"	1	-1	0	0	0	1	0	NA	NA	1
43	2	117	4	"nogo_reward"	1	0	1	0	0	1	1	NA	NA	1
43	2	118	4	"nogo_reward"	0	1	0	0	0	1	0	NA	NA	1
43	2	119	3	"go_reward"	1	1	0	1	1	1	1	0.261341899982654	NA	1
43	2	120	4	"nogo_reward"	0	1	0	0	0	1	0	NA	NA	1
43	3	121	1	"go_punish"	1	0	-1	1	1	1	0	0.307407900021644	NA	1
43	3	122	2	"nogo_punish"	1	-1	0	0	0	1	0	NA	NA	1
43	3	123	4	"nogo_reward"	1	0	1	0	0	1	1	NA	NA	1
43	3	124	3	"go_reward"	0	0	1	1	1	1	0	0.403875799995148	NA	1
43	3	125	2	"nogo_punish"	1	-1	0	0	0	1	0	NA	NA	1
43	3	126	4	"nogo_reward"	1	0	1	0	0	1	1	NA	NA	1
43	3	127	3	"go_reward"	1	1	0	1	1	1	1	0.49407539999811	NA	1
43	3	128	1	"go_punish"	1	0	-1	1	1	1	0	0.406113800010644	NA	1
43	3	129	3	"go_reward"	1	1	0	1	1	1	1	0.344706000003498	NA	1
43	3	130	1	"go_punish"	1	0	-1	1	1	1	0	0.473490499978652	NA	1
43	3	131	4	"nogo_reward"	0	1	0	0	0	1	0	NA	NA	1
43	3	132	3	"go_reward"	0	0	1	1	1	1	0	0.531937699997798	NA	1
43	3	133	4	"nogo_reward"	1	0	1	0	0	1	1	NA	NA	1
43	3	134	3	"go_reward"	1	1	0	1	1	1	1	0.234897100017406	NA	1
43	3	135	4	"nogo_reward"	1	0	1	0	0	1	1	NA	NA	1
43	3	136	1	"go_punish"	0	-1	0	1	1	1	-1	0.321218199998839	1	1
43	3	137	1	"go_punish"	0	-1	0	1	1	1	-1	0.337463100004243	0	1
43	3	138	4	"nogo_reward"	0	1	0	0	0	1	0	NA	NA	1
43	3	139	4	"nogo_reward"	1	0	1	0	0	1	1	NA	NA	1
43	3	140	1	"go_punish"	0	-1	0	1	1	1	-1	0.308575600007316	0	1
43	3	141	1	"go_punish"	1	0	-1	1	1	1	0	0.241937399987364	NA	1
43	3	142	3	"go_reward"	1	1	0	1	1	1	1	0.280869800015353	NA	1
43	3	143	2	"nogo_punish"	1	-1	0	0	0	1	0	NA	NA	1
43	3	144	3	"go_reward"	1	1	0	1	1	1	1	0.491953400021885	NA	1
43	3	145	1	"go_punish"	1	0	-1	1	1	1	0	0.422178499982692	NA	1
43	3	146	1	"go_punish"	1	0	-1	1	1	1	0	0.356325400003698	NA	1
43	3	147	4	"nogo_reward"	1	0	1	0	0	1	1	NA	NA	1
43	3	148	2	"nogo_punish"	1	-1	0	0	0	1	0	NA	NA	1
43	3	149	1	"go_punish"	1	0	-1	1	1	1	0	0.357593499997165	NA	1
43	3	150	2	"nogo_punish"	1	-1	0	0	0	1	0	NA	NA	1
43	3	151	4	"nogo_reward"	1	0	1	0	0	1	1	NA	NA	1
43	3	152	2	"nogo_punish"	1	-1	0	0	0	1	0	NA	NA	1
43	3	153	2	"nogo_punish"	0	0	-1	0	0	1	-1	NA	0	1
43	3	154	1	"go_punish"	0	-1	0	1	1	1	-1	0.200282600009814	0	1
43	3	155	3	"go_reward"	1	1	0	1	1	1	1	0.490693100000499	NA	1
43	3	156	4	"nogo_reward"	0	1	0	0	0	1	0	NA	NA	1
43	3	157	4	"nogo_reward"	1	0	1	0	0	1	1	NA	NA	1
43	3	158	3	"go_reward"	0	0	1	1	1	1	0	0.37325969999074	NA	1
43	3	159	1	"go_punish"	0	-1	0	1	1	1	-1	0.265941099991323	1	1
43	3	160	2	"nogo_punish"	1	-1	0	0	0	1	0	NA	NA	1
43	3	161	2	"nogo_punish"	1	-1	0	0	0	1	0	NA	NA	1
43	3	162	1	"go_punish"	0	-1	0	1	1	1	-1	0.685686000011628	0	1
43	3	163	2	"nogo_punish"	1	-1	0	0	0	1	0	NA	NA	1
43	3	164	2	"nogo_punish"	0	0	-1	0	0	1	-1	NA	0	1
43	3	165	2	"nogo_punish"	1	-1	0	0	0	1	0	NA	NA	1
43	3	166	4	"nogo_reward"	1	0	1	0	0	1	1	NA	NA	1
43	3	167	2	"nogo_punish"	1	-1	0	0	0	1	0	NA	NA	1
43	3	168	1	"go_punish"	0	-1	0	1	1	1	-1	0.239650700008497	0	1
43	3	169	4	"nogo_reward"	0	1	0	0	0	1	0	NA	NA	1
43	3	170	2	"nogo_punish"	1	-1	0	0	0	1	0	NA	NA	1
43	3	171	1	"go_punish"	1	0	-1	1	1	1	0	0.554343499999959	NA	1
43	3	172	3	"go_reward"	1	1	0	1	1	1	1	0.26185660000192	NA	1
43	3	173	3	"go_reward"	1	1	0	1	1	1	1	0.432225900003686	NA	1
43	3	174	4	"nogo_reward"	0	1	0	0	0	1	0	NA	NA	1
43	3	175	3	"go_reward"	1	1	0	1	1	1	1	0.604501199995866	NA	1
43	3	176	4	"nogo_reward"	1	0	1	0	0	1	1	NA	NA	1
43	3	177	3	"go_reward"	1	1	0	1	1	1	1	0.750167499994859	NA	1
43	3	178	2	"nogo_punish"	1	-1	0	0	0	1	0	NA	NA	1
43	3	179	3	"go_reward"	0	0	1	1	1	1	0	0.331264600012219	NA	1
43	3	180	3	"go_reward"	1	1	0	1	1	1	1	0.32036519999383	NA	1
11	1	1	3	"go_reward"	0	0	1	1	1	1	0	0.368303700000979	NA	1
11	1	2	1	"go_punish"	1	0	-1	1	1	1	0	0.53078499995172	NA	1
11	1	3	2	"nogo_punish"	1	-1	0	0	1	0	-1	0.478876999986824	1	1
11	1	4	1	"go_punish"	0	-1	0	1	0	0	0	NA	NA	1
11	1	5	3	"go_reward"	1	1	0	1	0	0	0	NA	NA	1
11	1	6	2	"nogo_punish"	1	-1	0	0	0	1	0	NA	NA	1
11	1	7	1	"go_punish"	1	0	-1	1	1	1	0	0.45490010001231	NA	1
11	1	8	2	"nogo_punish"	1	-1	0	0	0	1	0	NA	NA	1
11	1	9	1	"go_punish"	1	0	-1	1	0	0	-1	NA	0	1
11	1	10	2	"nogo_punish"	1	-1	0	0	0	1	0	NA	NA	1
11	1	11	3	"go_reward"	1	1	0	1	0	0	0	NA	NA	1
11	1	12	1	"go_punish"	0	-1	0	1	1	1	-1	0.347365900001023	0	1
11	1	13	1	"go_punish"	1	0	-1	1	0	0	-1	NA	1	1
11	1	14	4	"nogo_reward"	1	0	1	0	1	0	0	0.399504200031515	NA	1
11	1	15	4	"nogo_reward"	0	1	0	0	0	1	0	NA	NA	1
11	1	16	4	"nogo_reward"	1	0	1	0	1	0	0	0.621605099993758	NA	1
11	1	17	4	"nogo_reward"	1	0	1	0	0	1	1	NA	NA	1
11	1	18	1	"go_punish"	1	0	-1	1	0	0	-1	NA	1	1
11	1	19	2	"nogo_punish"	1	-1	0	0	0	1	0	NA	NA	1
11	1	20	1	"go_punish"	1	0	-1	1	1	1	0	0.29190260003088	NA	1
11	1	21	3	"go_reward"	1	1	0	1	1	1	1	0.304276800015941	NA	1
11	1	22	3	"go_reward"	1	1	0	1	1	1	1	0.245940199994948	NA	1
11	1	23	4	"nogo_reward"	0	1	0	0	0	1	0	NA	NA	1
11	1	24	2	"nogo_punish"	0	0	-1	0	0	1	-1	NA	0	1
11	1	25	2	"nogo_punish"	0	0	-1	0	0	1	-1	NA	0	1
11	1	26	2	"nogo_punish"	1	-1	0	0	0	1	0	NA	NA	1
11	1	27	2	"nogo_punish"	1	-1	0	0	0	1	0	NA	NA	1
11	1	28	4	"nogo_reward"	1	0	1	0	0	1	1	NA	NA	1
11	1	29	2	"nogo_punish"	0	0	-1	0	0	1	-1	NA	1	1
11	1	30	1	"go_punish"	1	0	-1	1	1	1	0	0.398130300047342	NA	1
11	1	31	4	"nogo_reward"	1	0	1	0	0	1	1	NA	NA	1
11	1	32	2	"nogo_punish"	0	0	-1	0	0	1	-1	NA	0	1
11	1	33	2	"nogo_punish"	1	-1	0	0	0	1	0	NA	NA	1
11	1	34	2	"nogo_punish"	1	-1	0	0	0	1	0	NA	NA	1
11	1	35	3	"go_reward"	1	1	0	1	1	1	1	0.302671800018288	NA	1
11	1	36	4	"nogo_reward"	1	0	1	0	0	1	1	NA	NA	1
11	1	37	1	"go_punish"	1	0	-1	1	0	0	-1	NA	1	1
11	1	38	4	"nogo_reward"	0	1	0	0	0	1	0	NA	NA	1
11	1	39	3	"go_reward"	1	1	0	1	1	1	1	0.260914499987848	NA	1
11	1	40	3	"go_reward"	1	1	0	1	1	1	1	0.290159100026358	NA	1
11	1	41	3	"go_reward"	0	0	1	1	1	1	0	0.294023599999491	NA	1
11	1	42	1	"go_punish"	0	-1	0	1	1	1	-1	0.479979800002184	0	1
11	1	43	3	"go_reward"	0	0	1	1	1	1	0	0.228387599985581	NA	1
11	1	44	1	"go_punish"	1	0	-1	1	1	1	0	0.328779299976304	NA	1
11	1	45	4	"nogo_reward"	1	0	1	0	0	1	1	NA	NA	1
11	1	46	2	"nogo_punish"	1	-1	0	0	0	1	0	NA	NA	1
11	1	47	3	"go_reward"	0	0	1	1	1	1	0	0.261614900024142	NA	1
11	1	48	3	"go_reward"	0	0	1	1	1	1	0	0.544647100032307	NA	1
11	1	49	3	"go_reward"	1	1	0	1	1	1	1	0.291697500040755	NA	1
11	1	50	1	"go_punish"	1	0	-1	1	1	1	0	0.277951499971095	NA	1
11	1	51	4	"nogo_reward"	1	0	1	0	0	1	1	NA	NA	1
11	1	52	3	"go_reward"	1	1	0	1	1	1	1	0.259308199980296	NA	1
11	1	53	1	"go_punish"	1	0	-1	1	1	1	0	0.433504400018137	NA	1
11	1	54	4	"nogo_reward"	1	0	1	0	0	1	1	NA	NA	1
11	1	55	3	"go_reward"	0	0	1	1	1	1	0	0.318844599998556	NA	1
11	1	56	2	"nogo_punish"	1	-1	0	0	0	1	0	NA	NA	1
11	1	57	1	"go_punish"	1	0	-1	1	1	1	0	0.307958999997936	NA	1
11	1	58	4	"nogo_reward"	1	0	1	0	0	1	1	NA	NA	1
11	1	59	4	"nogo_reward"	0	1	0	0	0	1	0	NA	NA	1
11	1	60	4	"nogo_reward"	0	1	0	0	0	1	0	NA	NA	1
11	2	61	1	"go_punish"	1	0	-1	1	1	1	0	0.332968299975619	NA	1
11	2	62	4	"nogo_reward"	1	0	1	0	0	1	1	NA	NA	1
11	2	63	4	"nogo_reward"	0	1	0	0	0	1	0	NA	NA	1
11	2	64	4	"nogo_reward"	0	1	0	0	0	1	0	NA	NA	1
11	2	65	2	"nogo_punish"	0	0	-1	0	0	1	-1	NA	1	1
11	2	66	3	"go_reward"	1	1	0	1	1	1	1	0.213499200006481	NA	1
11	2	67	2	"nogo_punish"	1	-1	0	0	1	0	-1	0.605600800015964	1	1
11	2	68	4	"nogo_reward"	0	1	0	0	0	1	0	NA	NA	1
11	2	69	3	"go_reward"	1	1	0	1	1	1	1	0.284295500023291	NA	1
11	2	70	2	"nogo_punish"	1	-1	0	0	0	1	0	NA	NA	1
11	2	71	1	"go_punish"	0	-1	0	1	1	1	-1	0.320050499984063	1	1
11	2	72	3	"go_reward"	1	1	0	1	1	1	1	0.697312400036026	NA	1
11	2	73	3	"go_reward"	1	1	0	1	1	1	1	0.557121900026686	NA	1
11	2	74	3	"go_reward"	1	1	0	1	1	1	1	0.794409600028303	NA	1
11	2	75	3	"go_reward"	1	1	0	1	1	1	1	0.337246200011577	NA	1
11	2	76	4	"nogo_reward"	1	0	1	0	0	1	1	NA	NA	1
11	2	77	2	"nogo_punish"	0	0	-1	0	0	1	-1	NA	0	1
11	2	78	1	"go_punish"	1	0	-1	1	1	1	0	0.53388730000006	NA	1
11	2	79	4	"nogo_reward"	1	0	1	0	0	1	1	NA	NA	1
11	2	80	3	"go_reward"	1	1	0	1	1	1	1	0.346564000006765	NA	1
11	2	81	2	"nogo_punish"	1	-1	0	0	0	1	0	NA	NA	1
11	2	82	4	"nogo_reward"	1	0	1	0	0	1	1	NA	NA	1
11	2	83	3	"go_reward"	0	0	1	1	1	1	0	0.29168749996461	NA	1
11	2	84	3	"go_reward"	0	0	1	1	1	1	0	0.783842999953777	NA	1
11	2	85	1	"go_punish"	1	0	-1	1	1	1	0	0.264285399985965	NA	1
11	2	86	1	"go_punish"	0	-1	0	1	0	0	0	NA	NA	1
11	2	87	1	"go_punish"	1	0	-1	1	1	1	0	0.229353799950331	NA	1
11	2	88	2	"nogo_punish"	1	-1	0	0	0	1	0	NA	NA	1
11	2	89	4	"nogo_reward"	0	1	0	0	0	1	0	NA	NA	1
11	2	90	3	"go_reward"	1	1	0	1	1	1	1	0.774586400017142	NA	1
11	2	91	3	"go_reward"	0	0	1	1	1	1	0	0.335253999975976	NA	1
11	2	92	2	"nogo_punish"	1	-1	0	0	0	1	0	NA	NA	1
11	2	93	1	"go_punish"	1	0	-1	1	1	1	0	0.738532099989243	NA	1
11	2	94	2	"nogo_punish"	1	-1	0	0	0	1	0	NA	NA	1
11	2	95	2	"nogo_punish"	1	-1	0	0	0	1	0	NA	NA	1
11	2	96	2	"nogo_punish"	1	-1	0	0	0	1	0	NA	NA	1
11	2	97	3	"go_reward"	0	0	1	1	1	1	0	0.953203200013377	NA	1
11	2	98	1	"go_punish"	0	-1	0	1	1	1	-1	0.218463000026531	1	1
11	2	99	2	"nogo_punish"	0	0	-1	0	0	1	-1	NA	1	1
11	2	100	4	"nogo_reward"	1	0	1	0	0	1	1	NA	NA	1
11	2	101	4	"nogo_reward"	1	0	1	0	0	1	1	NA	NA	1
11	2	102	3	"go_reward"	0	0	1	1	1	1	0	0.216234399995301	NA	1
11	2	103	4	"nogo_reward"	0	1	0	0	0	1	0	NA	NA	1
11	2	104	1	"go_punish"	1	0	-1	1	1	1	0	0.0923268999904394	NA	1
11	2	105	1	"go_punish"	1	0	-1	1	1	1	0	0.613162699970417	NA	1
11	2	106	3	"go_reward"	1	1	0	1	1	1	1	0.828540400019847	NA	1
11	2	107	4	"nogo_reward"	1	0	1	0	0	1	1	NA	NA	1
11	2	108	1	"go_punish"	1	0	-1	1	1	1	0	0.245961199980229	NA	1
11	2	109	2	"nogo_punish"	0	0	-1	0	0	1	-1	NA	1	1
11	2	110	4	"nogo_reward"	1	0	1	0	0	1	1	NA	NA	1
11	2	111	2	"nogo_punish"	1	-1	0	0	0	1	0	NA	NA	1
11	2	112	4	"nogo_reward"	1	0	1	0	0	1	1	NA	NA	1
11	2	113	1	"go_punish"	1	0	-1	1	1	1	0	0.237543700030073	NA	1
11	2	114	1	"go_punish"	1	0	-1	1	1	1	0	0.435967900033574	NA	1
11	2	115	2	"nogo_punish"	1	-1	0	0	0	1	0	NA	NA	1
11	2	116	1	"go_punish"	1	0	-1	1	0	0	-1	NA	0	1
11	2	117	3	"go_reward"	1	1	0	1	1	1	1	0.201722500030883	NA	1
11	2	118	2	"nogo_punish"	1	-1	0	0	0	1	0	NA	NA	1
11	2	119	4	"nogo_reward"	1	0	1	0	0	1	1	NA	NA	1
11	2	120	1	"go_punish"	0	-1	0	1	1	1	-1	0.27738419995876	0	1
11	3	121	3	"nogo_reward"	1	0	1	0	1	0	0	0.34525199997006	NA	1
11	3	122	3	"nogo_reward"	1	0	1	0	1	0	0	0.713648600038141	NA	1
11	3	123	1	"nogo_punish"	1	-1	0	0	0	1	0	NA	NA	1
11	3	124	1	"nogo_punish"	1	-1	0	0	0	1	0	NA	NA	1
11	3	125	4	"go_punish"	1	0	-1	1	1	1	0	0.294429100002162	NA	1
11	3	126	4	"go_punish"	1	0	-1	1	0	0	-1	NA	1	1
11	3	127	2	"go_reward"	0	0	1	1	1	1	0	0.26461269997526	NA	1
11	3	128	1	"nogo_punish"	1	-1	0	0	1	0	-1	0.476841799973044	1	1
11	3	129	2	"go_reward"	1	1	0	1	0	0	0	NA	NA	1
11	3	130	1	"nogo_punish"	0	0	-1	0	0	1	-1	NA	1	1
11	3	131	3	"nogo_reward"	1	0	1	0	0	1	1	NA	NA	1
11	3	132	4	"go_punish"	1	0	-1	1	1	1	0	0.369470399979036	NA	1
11	3	133	1	"nogo_punish"	1	-1	0	0	0	1	0	NA	NA	1
11	3	134	2	"go_reward"	1	1	0	1	1	1	1	0.22323060000781	NA	1
11	3	135	2	"go_reward"	0	0	1	1	1	1	0	0.195706299971789	NA	1
11	3	136	3	"nogo_reward"	0	1	0	0	0	1	0	NA	NA	1
11	3	137	4	"go_punish"	1	0	-1	1	1	1	0	0.470425400009845	NA	1
11	3	138	4	"go_punish"	0	-1	0	1	1	1	-1	0.244154100015294	0	1
11	3	139	4	"go_punish"	1	0	-1	1	1	1	0	0.355903599993326	NA	1
11	3	140	1	"nogo_punish"	1	-1	0	0	0	1	0	NA	NA	1
11	3	141	2	"go_reward"	1	1	0	1	1	1	1	0.300597099994775	NA	1
11	3	142	2	"go_reward"	0	0	1	1	0	0	1	NA	NA	1
11	3	143	1	"nogo_punish"	1	-1	0	0	0	1	0	NA	NA	1
11	3	144	2	"go_reward"	1	1	0	1	1	1	1	0.231363500002772	NA	1
11	3	145	3	"nogo_reward"	1	0	1	0	0	1	1	NA	NA	1
11	3	146	2	"go_reward"	1	1	0	1	1	1	1	0.228150999988429	NA	1
11	3	147	3	"nogo_reward"	1	0	1	0	0	1	1	NA	NA	1
11	3	148	4	"go_punish"	1	0	-1	1	0	0	-1	NA	0	1
11	3	149	1	"nogo_punish"	1	-1	0	0	0	1	0	NA	NA	1
11	3	150	1	"nogo_punish"	0	0	-1	0	0	1	-1	NA	0	1
11	3	151	3	"nogo_reward"	1	0	1	0	0	1	1	NA	NA	1
11	3	152	1	"nogo_punish"	1	-1	0	0	0	1	0	NA	NA	1
11	3	153	3	"nogo_reward"	1	0	1	0	0	1	1	NA	NA	1
11	3	154	4	"go_punish"	0	-1	0	1	1	1	-1	0.506927500013262	0	1
11	3	155	4	"go_punish"	1	0	-1	1	1	1	0	0.271480199997313	NA	1
11	3	156	2	"go_reward"	0	0	1	1	1	1	0	0.746080000011716	NA	1
11	3	157	1	"nogo_punish"	0	0	-1	0	0	1	-1	NA	1	1
11	3	158	2	"go_reward"	1	1	0	1	1	1	1	0.344042299955618	NA	1
11	3	159	2	"go_reward"	1	1	0	1	1	1	1	0.461031100014225	NA	1
11	3	160	4	"go_punish"	1	0	-1	1	1	1	0	0.627126600011252	NA	1
11	3	161	2	"go_reward"	0	0	1	1	1	1	0	0.257298799988348	NA	1
11	3	162	2	"go_reward"	0	0	1	1	1	1	0	0.240022799989674	NA	1
11	3	163	3	"nogo_reward"	0	1	0	0	0	1	0	NA	NA	1
11	3	164	1	"nogo_punish"	1	-1	0	0	0	1	0	NA	NA	1
11	3	165	3	"nogo_reward"	1	0	1	0	0	1	1	NA	NA	1
11	3	166	1	"nogo_punish"	0	0	-1	0	0	1	-1	NA	0	1
11	3	167	4	"go_punish"	1	0	-1	1	1	1	0	0.602510400000028	NA	1
11	3	168	4	"go_punish"	1	0	-1	1	1	1	0	0.292229599959683	NA	1
11	3	169	1	"nogo_punish"	1	-1	0	0	0	1	0	NA	NA	1
11	3	170	3	"nogo_reward"	1	0	1	0	0	1	1	NA	NA	1
11	3	171	2	"go_reward"	0	0	1	1	1	1	0	0.296234499954153	NA	1
11	3	172	3	"nogo_reward"	0	1	0	0	0	1	0	NA	NA	1
11	3	173	3	"nogo_reward"	0	1	0	0	0	1	0	NA	NA	1
11	3	174	4	"go_punish"	1	0	-1	1	1	1	0	0.613334499998018	NA	1
11	3	175	4	"go_punish"	1	0	-1	1	1	1	0	0.111709400021937	NA	1
11	3	176	4	"go_punish"	1	0	-1	1	1	1	0	0.276805099972989	NA	1
11	3	177	1	"nogo_punish"	1	-1	0	0	0	1	0	NA	NA	1
11	3	178	3	"nogo_reward"	1	0	1	0	0	1	1	NA	NA	1
11	3	179	3	"nogo_reward"	0	1	0	0	0	1	0	NA	NA	1
11	3	180	2	"go_reward"	1	1	0	1	1	1	1	0.243340699991677	NA	1
27	1	1	4	"nogo_reward"	0	1	0	0	1	0	1	0.67603119998239	NA	1
27	1	2	1	"go_punish"	1	0	-1	1	0	0	-1	NA	1	1
27	1	3	2	"nogo_punish"	1	-1	0	0	0	1	0	NA	NA	1
27	1	4	2	"nogo_punish"	1	-1	0	0	1	0	-1	0.271444799960591	0	1
27	1	5	4	"nogo_reward"	1	0	1	0	1	0	0	0.34370540000964	NA	1
27	1	6	1	"go_punish"	1	0	-1	1	1	1	0	0.271125099970959	NA	1
27	1	7	1	"go_punish"	1	0	-1	1	1	1	0	0.0315325999399647	NA	1
27	1	8	2	"nogo_punish"	1	-1	0	0	1	0	-1	0.0438722999533638	0	1
27	1	9	3	"go_reward"	1	1	0	1	1	1	1	0.366383299930021	NA	1
27	1	10	2	"nogo_punish"	1	-1	0	0	0	1	0	NA	NA	1
27	1	11	3	"go_reward"	0	0	1	1	1	1	0	0.216600500047207	NA	1
27	1	12	3	"go_reward"	1	1	0	1	1	1	1	0.353531599976122	NA	1
27	1	13	1	"go_punish"	1	0	-1	1	1	1	0	0.206639799987897	NA	1
27	1	14	3	"go_reward"	0	0	1	1	1	1	0	0.312120400019921	NA	1
27	1	15	3	"go_reward"	1	1	0	1	1	1	1	0.493833599961363	NA	1
27	1	16	4	"nogo_reward"	0	1	0	0	1	0	1	0.312184500042349	NA	1
27	1	17	2	"nogo_punish"	1	-1	0	0	1	0	-1	0.673934200080112	0	1
27	1	18	1	"go_punish"	1	0	-1	1	1	1	0	0.399704899988137	NA	1
27	1	19	4	"nogo_reward"	1	0	1	0	1	0	0	0.228152700001374	NA	1
27	1	20	2	"nogo_punish"	1	-1	0	0	0	1	0	NA	NA	1
27	1	21	2	"nogo_punish"	1	-1	0	0	0	1	0	NA	NA	1
27	1	22	3	"go_reward"	1	1	0	1	1	1	1	0.345107599976473	NA	1
27	1	23	2	"nogo_punish"	0	0	-1	0	0	1	-1	NA	0	1
27	1	24	1	"go_punish"	1	0	-1	1	1	1	0	0.277834599954076	NA	1
27	1	25	1	"go_punish"	1	0	-1	1	1	1	0	0.196878299931996	NA	1
27	1	26	3	"go_reward"	1	1	0	1	1	1	1	0.325670999940485	NA	1
27	1	27	1	"go_punish"	0	-1	0	1	1	1	-1	0.827426899923012	0	1
27	1	28	4	"nogo_reward"	1	0	1	0	1	0	0	0.300655099912547	NA	1
27	1	29	3	"go_reward"	0	0	1	1	1	1	0	0.238960799993947	NA	1
27	1	30	2	"nogo_punish"	0	0	-1	0	0	1	-1	NA	0	1
27	1	31	4	"nogo_reward"	1	0	1	0	0	1	1	NA	NA	1
27	1	32	2	"nogo_punish"	1	-1	0	0	0	1	0	NA	NA	1
27	1	33	2	"nogo_punish"	0	0	-1	0	0	1	-1	NA	0	1
27	1	34	1	"go_punish"	1	0	-1	1	1	1	0	0.737759500043467	NA	1
27	1	35	1	"go_punish"	0	-1	0	1	1	1	-1	0.579322500037961	1	1
27	1	36	4	"nogo_reward"	0	1	0	0	0	1	0	NA	NA	1
27	1	37	3	"go_reward"	1	1	0	1	1	1	1	0.306541200028732	NA	1
27	1	38	2	"nogo_punish"	0	0	-1	0	0	1	-1	NA	0	1
27	1	39	4	"nogo_reward"	1	0	1	0	0	1	1	NA	NA	1
27	1	40	4	"nogo_reward"	1	0	1	0	0	1	1	NA	NA	1
27	1	41	1	"go_punish"	1	0	-1	1	1	1	0	0.68100310000591	NA	1
27	1	42	3	"go_reward"	0	0	1	1	1	1	0	0.398593000019901	NA	1
27	1	43	4	"nogo_reward"	1	0	1	0	0	1	1	NA	NA	1
27	1	44	3	"go_reward"	0	0	1	1	1	1	0	0.387996300007217	NA	1
27	1	45	4	"nogo_reward"	1	0	1	0	0	1	1	NA	NA	1
27	1	46	1	"go_punish"	1	0	-1	1	0	0	-1	NA	0	1
27	1	47	4	"nogo_reward"	1	0	1	0	0	1	1	NA	NA	1
27	1	48	3	"go_reward"	1	1	0	1	1	1	1	0.635572199942544	NA	1
27	1	49	1	"go_punish"	1	0	-1	1	1	1	0	0.357653600047342	NA	1
27	1	50	3	"go_reward"	1	1	0	1	1	1	1	0.802720400039107	NA	1
27	1	51	1	"go_punish"	0	-1	0	1	1	1	-1	0.491452699992806	0	1
27	1	52	2	"nogo_punish"	1	-1	0	0	0	1	0	NA	NA	1
27	1	53	4	"nogo_reward"	1	0	1	0	0	1	1	NA	NA	1
27	1	54	4	"nogo_reward"	1	0	1	0	0	1	1	NA	NA	1
27	1	55	3	"go_reward"	1	1	0	1	1	1	1	0.45010439993348	NA	1
27	1	56	3	"go_reward"	1	1	0	1	1	1	1	0.430932799936272	NA	1
27	1	57	1	"go_punish"	1	0	-1	1	1	1	0	0.338220200035721	NA	1
27	1	58	2	"nogo_punish"	0	0	-1	0	0	1	-1	NA	1	1
27	1	59	4	"nogo_reward"	0	1	0	0	0	1	0	NA	NA	1
27	1	60	2	"nogo_punish"	0	0	-1	0	0	1	-1	NA	1	1
27	2	61	4	"nogo_reward"	1	0	1	0	0	1	1	NA	NA	1
27	2	62	3	"go_reward"	0	0	1	1	1	1	0	0.568817500025034	NA	1
27	2	63	2	"nogo_punish"	1	-1	0	0	0	1	0	NA	NA	1
27	2	64	4	"nogo_reward"	1	0	1	0	0	1	1	NA	NA	1
27	2	65	4	"nogo_reward"	1	0	1	0	0	1	1	NA	NA	1
27	2	66	4	"nogo_reward"	1	0	1	0	0	1	1	NA	NA	1
27	2	67	4	"nogo_reward"	1	0	1	0	0	1	1	NA	NA	1
27	2	68	1	"go_punish"	1	0	-1	1	1	1	0	0.502002699999139	NA	1
27	2	69	4	"nogo_reward"	1	0	1	0	0	1	1	NA	NA	1
27	2	70	1	"go_punish"	0	-1	0	1	0	0	0	NA	NA	1
27	2	71	2	"nogo_punish"	1	-1	0	0	0	1	0	NA	NA	1
27	2	72	4	"nogo_reward"	1	0	1	0	0	1	1	NA	NA	1
27	2	73	4	"nogo_reward"	0	1	0	0	0	1	0	NA	NA	1
27	2	74	3	"go_reward"	0	0	1	1	1	1	0	0.769550899975002	NA	1
27	2	75	1	"go_punish"	0	-1	0	1	1	1	-1	0.49314829998184	1	1
27	2	76	1	"go_punish"	1	0	-1	1	1	1	0	0.332140399958007	NA	1
27	2	77	2	"nogo_punish"	0	0	-1	0	0	1	-1	NA	0	1
27	2	78	4	"nogo_reward"	1	0	1	0	0	1	1	NA	NA	1
27	2	79	3	"go_reward"	1	1	0	1	1	1	1	0.779605099931359	NA	1
27	2	80	1	"go_punish"	0	-1	0	1	1	1	-1	0.292719399905764	0	1
27	2	81	2	"nogo_punish"	1	-1	0	0	0	1	0	NA	NA	1
27	2	82	4	"nogo_reward"	0	1	0	0	0	1	0	NA	NA	1
27	2	83	3	"go_reward"	0	0	1	1	1	1	0	0.89634279999882	NA	1
27	2	84	3	"go_reward"	0	0	1	1	1	1	0	0.329003200051375	NA	1
27	2	85	2	"nogo_punish"	0	0	-1	0	0	1	-1	NA	0	1
27	2	86	1	"go_punish"	1	0	-1	1	1	1	0	0.344293899950571	NA	1
27	2	87	2	"nogo_punish"	1	-1	0	0	1	0	-1	0.54109429998789	0	1
27	2	88	1	"go_punish"	1	0	-1	1	1	1	0	0.258605699986219	NA	1
27	2	89	3	"go_reward"	1	1	0	1	1	1	1	0.278238799888641	NA	1
27	2	90	1	"go_punish"	1	0	-1	1	1	1	0	0.355448300018907	NA	1
27	2	91	3	"go_reward"	1	1	0	1	1	1	1	0.23266830004286	NA	1
27	2	92	2	"nogo_punish"	1	-1	0	0	0	1	0	NA	NA	1
27	2	93	2	"nogo_punish"	1	-1	0	0	0	1	0	NA	NA	1
27	2	94	1	"go_punish"	1	0	-1	1	1	1	0	0.300018200068735	NA	1
27	2	95	2	"nogo_punish"	1	-1	0	0	0	1	0	NA	NA	1
27	2	96	3	"go_reward"	0	0	1	1	1	1	0	0.268987100105733	NA	1
27	2	97	3	"go_reward"	1	1	0	1	1	1	1	0.262804099940695	NA	1
27	2	98	1	"go_punish"	0	-1	0	1	1	1	-1	0.45186119992286	1	1
27	2	99	4	"nogo_reward"	1	0	1	0	0	1	1	NA	NA	1
27	2	100	3	"go_reward"	1	1	0	1	1	1	1	0.296739500015974	NA	1
27	2	101	2	"nogo_punish"	1	-1	0	0	0	1	0	NA	NA	1
27	2	102	1	"go_punish"	1	0	-1	1	1	1	0	0.331626200000755	NA	1
27	2	103	3	"go_reward"	1	1	0	1	1	1	1	0.370073799975216	NA	1
27	2	104	1	"go_punish"	1	0	-1	1	1	1	0	0.572637799894437	NA	1
27	2	105	4	"nogo_reward"	1	0	1	0	0	1	1	NA	NA	1
27	2	106	4	"nogo_reward"	1	0	1	0	0	1	1	NA	NA	1
27	2	107	2	"nogo_punish"	0	0	-1	0	0	1	-1	NA	1	1
27	2	108	2	"nogo_punish"	1	-1	0	0	0	1	0	NA	NA	1
27	2	109	3	"go_reward"	1	1	0	1	1	1	1	0.273883300018497	NA	1
27	2	110	2	"nogo_punish"	1	-1	0	0	0	1	0	NA	NA	1
27	2	111	4	"nogo_reward"	1	0	1	0	0	1	1	NA	NA	1
27	2	112	2	"nogo_punish"	1	-1	0	0	0	1	0	NA	NA	1
27	2	113	1	"go_punish"	0	-1	0	1	1	1	-1	0.314129899954423	0	1
27	2	114	1	"go_punish"	1	0	-1	1	1	1	0	0.264732499956153	NA	1
27	2	115	4	"nogo_reward"	1	0	1	0	0	1	1	NA	NA	1
27	2	116	1	"go_punish"	1	0	-1	1	1	1	0	0.510398100013845	NA	1
27	2	117	2	"nogo_punish"	0	0	-1	0	0	1	-1	NA	0	1
27	2	118	3	"go_reward"	0	0	1	1	1	1	0	0.469168100040406	NA	1
27	2	119	3	"go_reward"	1	1	0	1	0	0	0	NA	NA	1
27	2	120	3	"go_reward"	0	0	1	1	1	1	0	0.471396899898537	NA	1
27	3	121	2	"nogo_punish"	1	-1	0	0	0	1	0	NA	NA	1
27	3	122	2	"nogo_punish"	0	0	-1	0	0	1	-1	NA	1	1
27	3	123	1	"go_punish"	0	-1	0	1	1	1	-1	0.296114200027659	1	1
27	3	124	2	"nogo_punish"	1	-1	0	0	0	1	0	NA	NA	1
27	3	125	3	"go_reward"	1	1	0	1	1	1	1	0.255110800033435	NA	1
27	3	126	2	"nogo_punish"	1	-1	0	0	0	1	0	NA	NA	1
27	3	127	1	"go_punish"	1	0	-1	1	1	1	0	0.183037100010552	NA	1
27	3	128	4	"nogo_reward"	0	1	0	0	0	1	0	NA	NA	1
27	3	129	3	"go_reward"	0	0	1	1	1	1	0	0.433253700030036	NA	1
27	3	130	1	"go_punish"	1	0	-1	1	1	1	0	0.751053699990734	NA	1
27	3	131	3	"go_reward"	1	1	0	1	1	1	1	0.927087599993683	NA	1
27	3	132	2	"nogo_punish"	1	-1	0	0	0	1	0	NA	NA	1
27	3	133	3	"go_reward"	1	1	0	1	1	1	1	0.569080900051631	NA	1
27	3	134	3	"go_reward"	1	1	0	1	1	1	1	0.29141800000798	NA	1
27	3	135	3	"go_reward"	1	1	0	1	1	1	1	0.478134299977682	NA	1
27	3	136	2	"nogo_punish"	1	-1	0	0	0	1	0	NA	NA	1
27	3	137	3	"go_reward"	1	1	0	1	1	1	1	0.343913599965163	NA	1
27	3	138	1	"go_punish"	0	-1	0	1	1	1	-1	0.256140999961644	1	1
27	3	139	2	"nogo_punish"	1	-1	0	0	0	1	0	NA	NA	1
27	3	140	4	"nogo_reward"	1	0	1	0	0	1	1	NA	NA	1
27	3	141	1	"go_punish"	1	0	-1	1	1	1	0	0.429119599983096	NA	1
27	3	142	3	"go_reward"	0	0	1	1	1	1	0	0.308266500011087	NA	1
27	3	143	4	"nogo_reward"	1	0	1	0	0	1	1	NA	NA	1
27	3	144	1	"go_punish"	1	0	-1	1	0	0	-1	NA	0	1
27	3	145	1	"go_punish"	1	0	-1	1	1	1	0	0.598974999971688	NA	1
27	3	146	4	"nogo_reward"	1	0	1	0	0	1	1	NA	NA	1
27	3	147	3	"go_reward"	1	1	0	1	0	0	0	NA	NA	1
27	3	148	2	"nogo_punish"	1	-1	0	0	0	1	0	NA	NA	1
27	3	149	2	"nogo_punish"	1	-1	0	0	0	1	0	NA	NA	1
27	3	150	4	"nogo_reward"	0	1	0	0	0	1	0	NA	NA	1
27	3	151	4	"nogo_reward"	0	1	0	0	0	1	0	NA	NA	1
27	3	152	1	"go_punish"	1	0	-1	1	1	1	0	0.435303700040094	NA	1
27	3	153	4	"nogo_reward"	1	0	1	0	0	1	1	NA	NA	1
27	3	154	3	"go_reward"	0	0	1	1	1	1	0	0.404238999937661	NA	1
27	3	155	1	"go_punish"	1	0	-1	1	1	1	0	0.696876899921335	NA	1
27	3	156	4	"nogo_reward"	0	1	0	0	0	1	0	NA	NA	1
27	3	157	4	"nogo_reward"	1	0	1	0	0	1	1	NA	NA	1
27	3	158	3	"go_reward"	1	1	0	1	1	1	1	0.295772800105624	NA	1
27	3	159	2	"nogo_punish"	1	-1	0	0	0	1	0	NA	NA	1
27	3	160	4	"nogo_reward"	0	1	0	0	0	1	0	NA	NA	1
27	3	161	2	"nogo_punish"	1	-1	0	0	0	1	0	NA	NA	1
27	3	162	1	"go_punish"	0	-1	0	1	1	1	-1	0.398674899945036	0	1
27	3	163	3	"go_reward"	0	0	1	1	1	1	0	0.299915000097826	NA	1
27	3	164	4	"nogo_reward"	1	0	1	0	0	1	1	NA	NA	1
27	3	165	3	"go_reward"	1	1	0	1	1	1	1	0.428596499958076	NA	1
27	3	166	4	"nogo_reward"	1	0	1	0	0	1	1	NA	NA	1
27	3	167	1	"go_punish"	1	0	-1	1	1	1	0	0.283606100012548	NA	1
27	3	168	2	"nogo_punish"	1	-1	0	0	0	1	0	NA	NA	1
27	3	169	1	"go_punish"	1	0	-1	1	1	1	0	0.255585300037637	NA	1
27	3	170	4	"nogo_reward"	1	0	1	0	0	1	1	NA	NA	1
27	3	171	2	"nogo_punish"	0	0	-1	0	0	1	-1	NA	0	1
27	3	172	3	"go_reward"	1	1	0	1	1	1	1	0.137078700005077	NA	1
27	3	173	1	"go_punish"	0	-1	0	1	1	1	-1	0.293780699954368	1	1
27	3	174	1	"go_punish"	0	-1	0	1	1	1	-1	0.879706799983978	0	1
27	3	175	2	"nogo_punish"	1	-1	0	0	0	1	0	NA	NA	1
27	3	176	4	"nogo_reward"	0	1	0	0	0	1	0	NA	NA	1
27	3	177	2	"nogo_punish"	1	-1	0	0	0	1	0	NA	NA	1
27	3	178	4	"nogo_reward"	1	0	1	0	0	1	1	NA	NA	1
27	3	179	3	"go_reward"	1	1	0	1	1	1	1	0.333911100053228	NA	1
27	3	180	1	"go_punish"	0	-1	0	1	0	0	0	NA	NA	1
73	1	1	2	"nogo_reward"	1	0	1	0	1	0	0	0.864094099961221	NA	1
73	1	2	2	"nogo_reward"	1	0	1	0	0	1	1	NA	NA	1
73	1	3	3	"go_punish"	1	0	-1	1	1	1	0	0.52820249996148	NA	1
73	1	4	4	"nogo_punish"	1	-1	0	0	1	0	-1	0.317480599973351	1	1
73	1	5	4	"nogo_punish"	0	0	-1	0	0	1	-1	NA	0	1
73	1	6	2	"nogo_reward"	0	1	0	0	0	1	0	NA	NA	1
73	1	7	2	"nogo_reward"	1	0	1	0	1	0	0	0.352272799937055	NA	1
73	1	8	1	"go_reward"	1	1	0	1	1	1	1	0.298601899994537	NA	1
73	1	9	4	"nogo_punish"	1	-1	0	0	0	1	0	NA	NA	1
73	1	10	4	"nogo_punish"	1	-1	0	0	1	0	-1	0.467377300024964	0	1
73	1	11	1	"go_reward"	1	1	0	1	1	1	1	0.2661453000037	NA	1
73	1	12	4	"nogo_punish"	1	-1	0	0	0	1	0	NA	NA	1
73	1	13	3	"go_punish"	1	0	-1	1	1	1	0	0.4251699000597	NA	1
73	1	14	4	"nogo_punish"	1	-1	0	0	0	1	0	NA	NA	1
73	1	15	4	"nogo_punish"	1	-1	0	0	0	1	0	NA	NA	1
73	1	16	2	"nogo_reward"	1	0	1	0	1	0	0	0.372903299983591	NA	1
73	1	17	1	"go_reward"	0	0	1	1	1	1	0	0.30841459997464	NA	1
73	1	18	2	"nogo_reward"	0	1	0	0	1	0	1	0.473135899985209	NA	1
73	1	19	3	"go_punish"	0	-1	0	1	0	0	0	NA	NA	1
73	1	20	2	"nogo_reward"	1	0	1	0	0	1	1	NA	NA	1
73	1	21	1	"go_reward"	1	1	0	1	1	1	1	0.286328700021841	NA	1
73	1	22	2	"nogo_reward"	1	0	1	0	0	1	1	NA	NA	1
73	1	23	1	"go_reward"	1	1	0	1	1	1	1	0.509645999991335	NA	1
73	1	24	4	"nogo_punish"	0	0	-1	0	0	1	-1	NA	0	1
73	1	25	3	"go_punish"	1	0	-1	1	1	1	0	0.33332979993429	NA	1
73	1	26	3	"go_punish"	1	0	-1	1	0	0	-1	NA	0	1
73	1	27	4	"nogo_punish"	1	-1	0	0	1	0	-1	0.768183599924669	1	1
73	1	28	3	"go_punish"	0	-1	0	1	1	1	-1	0.600754500017501	0	1
73	1	29	1	"go_reward"	0	0	1	1	1	1	0	0.414887999999337	NA	1
73	1	30	3	"go_punish"	1	0	-1	1	0	0	-1	NA	0	1
73	1	31	4	"nogo_punish"	0	0	-1	0	0	1	-1	NA	0	1
73	1	32	1	"go_reward"	0	0	1	1	1	1	0	0.321582600008696	NA	1
73	1	33	2	"nogo_reward"	1	0	1	0	0	1	1	NA	NA	1
73	1	34	1	"go_reward"	0	0	1	1	1	1	0	0.291727300034836	NA	1
73	1	35	4	"nogo_punish"	0	0	-1	0	0	1	-1	NA	0	1
73	1	36	4	"nogo_punish"	0	0	-1	0	0	1	-1	NA	0	1
73	1	37	1	"go_reward"	0	0	1	1	1	1	0	0.36514879995957	NA	1
73	1	38	1	"go_reward"	1	1	0	1	1	1	1	0.316894400049932	NA	1
73	1	39	1	"go_reward"	1	1	0	1	1	1	1	0.366723599960096	NA	1
73	1	40	2	"nogo_reward"	1	0	1	0	0	1	1	NA	NA	1
73	1	41	3	"go_punish"	1	0	-1	1	1	1	0	0.552042499999516	NA	1
73	1	42	1	"go_reward"	0	0	1	1	1	1	0	0.987990799942054	NA	1
73	1	43	2	"nogo_reward"	1	0	1	0	0	1	1	NA	NA	1
73	1	44	3	"go_punish"	0	-1	0	1	1	1	-1	0.421592199942097	0	1
73	1	45	4	"nogo_punish"	1	-1	0	0	1	0	-1	0.531090099946596	0	1
73	1	46	3	"go_punish"	1	0	-1	1	0	0	-1	NA	0	1
73	1	47	4	"nogo_punish"	1	-1	0	0	0	1	0	NA	NA	1
73	1	48	1	"go_reward"	1	1	0	1	1	1	1	0.289028499973938	NA	1
73	1	49	2	"nogo_reward"	1	0	1	0	0	1	1	NA	NA	1
73	1	50	3	"go_punish"	0	-1	0	1	0	0	0	NA	NA	1
73	1	51	3	"go_punish"	1	0	-1	1	0	0	-1	NA	0	1
73	1	52	3	"go_punish"	1	0	-1	1	0	0	-1	NA	0	1
73	1	53	2	"nogo_reward"	1	0	1	0	0	1	1	NA	NA	1
73	1	54	1	"go_reward"	1	1	0	1	1	1	1	0.404624299961142	NA	1
73	1	55	2	"nogo_reward"	0	1	0	0	0	1	0	NA	NA	1
73	1	56	4	"nogo_punish"	1	-1	0	0	0	1	0	NA	NA	1
73	1	57	2	"nogo_reward"	1	0	1	0	0	1	1	NA	NA	1
73	1	58	3	"go_punish"	1	0	-1	1	0	0	-1	NA	0	1
73	1	59	3	"go_punish"	1	0	-1	1	1	1	0	0.350313100032508	NA	1
73	1	60	1	"go_reward"	1	1	0	1	1	1	1	0.242911000037566	NA	1
73	2	61	3	"go_punish"	1	0	-1	1	0	0	-1	NA	1	1
73	2	62	2	"nogo_reward"	0	1	0	0	0	1	0	NA	NA	1
73	2	63	2	"nogo_reward"	1	0	1	0	0	1	1	NA	NA	1
73	2	64	4	"nogo_punish"	1	-1	0	0	0	1	0	NA	NA	1
73	2	65	2	"nogo_reward"	1	0	1	0	0	1	1	NA	NA	1
73	2	66	4	"nogo_punish"	1	-1	0	0	0	1	0	NA	NA	1
73	2	67	2	"nogo_reward"	1	0	1	0	0	1	1	NA	NA	1
73	2	68	4	"nogo_punish"	1	-1	0	0	0	1	0	NA	NA	1
73	2	69	1	"go_reward"	0	0	1	1	1	1	0	0.412113400059752	NA	1
73	2	70	4	"nogo_punish"	0	0	-1	0	0	1	-1	NA	0	1
73	2	71	4	"nogo_punish"	1	-1	0	0	1	0	-1	0.285721499938518	0	1
73	2	72	4	"nogo_punish"	1	-1	0	0	0	1	0	NA	NA	1
73	2	73	3	"go_punish"	1	0	-1	1	0	0	-1	NA	1	1
73	2	74	3	"go_punish"	1	0	-1	1	1	1	0	0.251054299995303	NA	1
73	2	75	1	"go_reward"	1	1	0	1	1	1	1	0.406184999970719	NA	1
73	2	76	1	"go_reward"	0	0	1	1	1	1	0	0.339351400034502	NA	1
73	2	77	2	"nogo_reward"	1	0	1	0	0	1	1	NA	NA	1
73	2	78	4	"nogo_punish"	1	-1	0	0	1	0	-1	0.538360300008208	0	1
73	2	79	1	"go_reward"	0	0	1	1	1	1	0	0.391986900009215	NA	1
73	2	80	4	"nogo_punish"	0	0	-1	0	0	1	-1	NA	0	1
73	2	81	4	"nogo_punish"	0	0	-1	0	0	1	-1	NA	0	1
73	2	82	2	"nogo_reward"	1	0	1	0	0	1	1	NA	NA	1
73	2	83	1	"go_reward"	1	1	0	1	1	1	1	0.351950000040233	NA	1
73	2	84	3	"go_punish"	1	0	-1	1	1	1	0	0.189539800048806	NA	1
73	2	85	1	"go_reward"	1	1	0	1	1	1	1	0.866748600034043	NA	1
73	2	86	2	"nogo_reward"	1	0	1	0	0	1	1	NA	NA	1
73	2	87	2	"nogo_reward"	1	0	1	0	0	1	1	NA	NA	1
73	2	88	4	"nogo_punish"	1	-1	0	0	0	1	0	NA	NA	1
73	2	89	3	"go_punish"	1	0	-1	1	0	0	-1	NA	0	1
73	2	90	3	"go_punish"	0	-1	0	1	1	1	-1	0.50933780008927	0	1
73	2	91	3	"go_punish"	0	-1	0	1	0	0	0	NA	NA	1
73	2	92	2	"nogo_reward"	1	0	1	0	0	1	1	NA	NA	1
73	2	93	2	"nogo_reward"	1	0	1	0	0	1	1	NA	NA	1
73	2	94	2	"nogo_reward"	0	1	0	0	0	1	0	NA	NA	1
73	2	95	3	"go_punish"	1	0	-1	1	0	0	-1	NA	1	1
73	2	96	2	"nogo_reward"	1	0	1	0	0	1	1	NA	NA	1
73	2	97	4	"nogo_punish"	1	-1	0	0	0	1	0	NA	NA	1
73	2	98	3	"go_punish"	1	0	-1	1	0	0	-1	NA	1	1
73	2	99	3	"go_punish"	1	0	-1	1	1	1	0	0.356472600018606	NA	1
73	2	100	1	"go_reward"	1	1	0	1	1	1	1	0.372160300030373	NA	1
73	2	101	1	"go_reward"	0	0	1	1	0	0	1	NA	NA	1
73	2	102	3	"go_punish"	0	-1	0	1	1	1	-1	0.617608700064011	0	1
73	2	103	1	"go_reward"	1	1	0	1	0	0	0	NA	NA	1
73	2	104	1	"go_reward"	1	1	0	1	1	1	1	0.407751000020653	NA	1
73	2	105	2	"nogo_reward"	1	0	1	0	0	1	1	NA	NA	1
73	2	106	1	"go_reward"	1	1	0	1	1	1	1	0.323443100089207	NA	1
73	2	107	3	"go_punish"	0	-1	0	1	1	1	-1	0.343076599994674	1	1
73	2	108	1	"go_reward"	1	1	0	1	1	1	1	0.441708300029859	NA	1
73	2	109	3	"go_punish"	1	0	-1	1	0	0	-1	NA	1	1
73	2	110	4	"nogo_punish"	0	0	-1	0	0	1	-1	NA	0	1
73	2	111	4	"nogo_punish"	1	-1	0	0	1	0	-1	0.281481900019571	0	1
73	2	112	1	"go_reward"	0	0	1	1	1	1	0	0.321208899957128	NA	1
73	2	113	1	"go_reward"	1	1	0	1	0	0	0	NA	NA	1
73	2	114	2	"nogo_reward"	0	1	0	0	0	1	0	NA	NA	1
73	2	115	2	"nogo_reward"	1	0	1	0	0	1	1	NA	NA	1
73	2	116	4	"nogo_punish"	1	-1	0	0	1	0	-1	0.31425679998938	1	1
73	2	117	4	"nogo_punish"	0	0	-1	0	0	1	-1	NA	0	1
73	2	118	3	"go_punish"	0	-1	0	1	0	0	0	NA	NA	1
73	2	119	1	"go_reward"	1	1	0	1	1	1	1	0.325003100093454	NA	1
73	2	120	3	"go_punish"	1	0	-1	1	0	0	-1	NA	1	1
73	3	121	2	"nogo_reward"	1	0	1	0	0	1	1	NA	NA	1
73	3	122	2	"nogo_reward"	1	0	1	0	0	1	1	NA	NA	1
73	3	123	4	"nogo_punish"	0	0	-1	0	1	0	0	0.677792200003751	NA	1
73	3	124	3	"go_punish"	0	-1	0	1	1	1	-1	0.591296100057662	1	1
73	3	125	1	"go_reward"	1	1	0	1	1	1	1	0.583573900046758	NA	1
73	3	126	2	"nogo_reward"	1	0	1	0	0	1	1	NA	NA	1
73	3	127	3	"go_punish"	1	0	-1	1	1	1	0	0.409895899938419	NA	1
73	3	128	1	"go_reward"	0	0	1	1	1	1	0	0.380137200001627	NA	1
73	3	129	4	"nogo_punish"	1	-1	0	0	1	0	-1	0.403927000006661	0	1
73	3	130	1	"go_reward"	0	0	1	1	1	1	0	0.339417200069875	NA	1
73	3	131	1	"go_reward"	1	1	0	1	1	1	1	0.442925399984233	NA	1
73	3	132	2	"nogo_reward"	1	0	1	0	0	1	1	NA	NA	1
73	3	133	3	"go_punish"	0	-1	0	1	0	0	0	NA	NA	1
73	3	134	2	"nogo_reward"	1	0	1	0	0	1	1	NA	NA	1
73	3	135	4	"nogo_punish"	1	-1	0	0	0	1	0	NA	NA	1
73	3	136	1	"go_reward"	0	0	1	1	1	1	0	0.329321799916215	NA	1
73	3	137	2	"nogo_reward"	1	0	1	0	0	1	1	NA	NA	1
73	3	138	2	"nogo_reward"	1	0	1	0	0	1	1	NA	NA	1
73	3	139	1	"go_reward"	1	1	0	1	1	1	1	0.484736400074326	NA	1
73	3	140	1	"go_reward"	1	1	0	1	1	1	1	0.553904699976556	NA	1
73	3	141	1	"go_reward"	0	0	1	1	0	0	1	NA	NA	1
73	3	142	3	"go_punish"	1	0	-1	1	0	0	-1	NA	0	1
73	3	143	4	"nogo_punish"	0	0	-1	0	1	0	0	0.528022999991663	NA	1
73	3	144	4	"nogo_punish"	1	-1	0	0	0	1	0	NA	NA	1
73	3	145	4	"nogo_punish"	1	-1	0	0	0	1	0	NA	NA	1
73	3	146	2	"nogo_reward"	0	1	0	0	0	1	0	NA	NA	1
73	3	147	3	"go_punish"	0	-1	0	1	0	0	0	NA	NA	1
73	3	148	4	"nogo_punish"	1	-1	0	0	1	0	-1	0.479127999977209	1	1
73	3	149	1	"go_reward"	1	1	0	1	0	0	0	NA	NA	1
73	3	150	1	"go_reward"	1	1	0	1	0	0	0	NA	NA	1
73	3	151	4	"nogo_punish"	1	-1	0	0	0	1	0	NA	NA	1
73	3	152	2	"nogo_reward"	0	1	0	0	0	1	0	NA	NA	1
73	3	153	2	"nogo_reward"	1	0	1	0	0	1	1	NA	NA	1
73	3	154	3	"go_punish"	1	0	-1	1	0	0	-1	NA	0	1
73	3	155	1	"go_reward"	1	1	0	1	0	0	0	NA	NA	1
73	3	156	4	"nogo_punish"	1	-1	0	0	0	1	0	NA	NA	1
73	3	157	4	"nogo_punish"	0	0	-1	0	0	1	-1	NA	0	1
73	3	158	3	"go_punish"	1	0	-1	1	0	0	-1	NA	0	1
73	3	159	2	"nogo_reward"	1	0	1	0	0	1	1	NA	NA	1
73	3	160	4	"nogo_punish"	0	0	-1	0	0	1	-1	NA	1	1
73	3	161	1	"go_reward"	1	1	0	1	0	0	0	NA	NA	1
73	3	162	4	"nogo_punish"	1	-1	0	0	1	0	-1	0.659475399996154	0	1
73	3	163	4	"nogo_punish"	1	-1	0	0	0	1	0	NA	NA	1
73	3	164	3	"go_punish"	1	0	-1	1	0	0	-1	NA	0	1
73	3	165	3	"go_punish"	1	0	-1	1	0	0	-1	NA	0	1
73	3	166	4	"nogo_punish"	1	-1	0	0	0	1	0	NA	NA	1
73	3	167	3	"go_punish"	1	0	-1	1	1	1	0	0.832923499983735	NA	1
73	3	168	3	"go_punish"	1	0	-1	1	0	0	-1	NA	1	1
73	3	169	1	"go_reward"	1	1	0	1	1	1	1	0.28200490004383	NA	1
73	3	170	2	"nogo_reward"	0	1	0	0	0	1	0	NA	NA	1
73	3	171	3	"go_punish"	1	0	-1	1	0	0	-1	NA	0	1
73	3	172	4	"nogo_punish"	1	-1	0	0	0	1	0	NA	NA	1
73	3	173	3	"go_punish"	0	-1	0	1	0	0	0	NA	NA	1
73	3	174	2	"nogo_reward"	0	1	0	0	0	1	0	NA	NA	1
73	3	175	1	"go_reward"	1	1	0	1	0	0	0	NA	NA	1
73	3	176	1	"go_reward"	1	1	0	1	1	1	1	0.400419299956411	NA	1
73	3	177	3	"go_punish"	1	0	-1	1	0	0	-1	NA	0	1
73	3	178	3	"go_punish"	0	-1	0	1	1	1	-1	0.29168819996994	0	1
73	3	179	2	"nogo_reward"	0	1	0	0	0	1	0	NA	NA	1
73	3	180	2	"nogo_reward"	1	0	1	0	0	1	1	NA	NA	1
79	1	1	2	"nogo_punish"	1	-1	0	0	1	0	-1	0.43734149998636	1	1
79	1	2	4	"nogo_reward"	1	0	1	0	1	0	0	0.500878699996974	NA	1
79	1	3	3	"go_reward"	0	0	1	1	1	1	0	0.923638899985235	NA	1
79	1	4	2	"nogo_punish"	0	0	-1	0	0	1	-1	NA	1	1
79	1	5	3	"go_reward"	1	1	0	1	1	1	1	0.338818500022171	NA	1
79	1	6	4	"nogo_reward"	1	0	1	0	1	0	0	0.478998400009004	NA	1
79	1	7	1	"go_punish"	0	-1	0	1	0	0	0	NA	NA	1
79	1	8	1	"go_punish"	1	0	-1	1	1	1	0	0.257427899981849	NA	1
79	1	9	1	"go_punish"	0	-1	0	1	1	1	-1	0.304284899990307	0	1
79	1	10	2	"nogo_punish"	1	-1	0	0	0	1	0	NA	NA	1
79	1	11	3	"go_reward"	1	1	0	1	1	1	1	0.261217400024179	NA	1
79	1	12	1	"go_punish"	1	0	-1	1	0	0	-1	NA	0	1
79	1	13	4	"nogo_reward"	1	0	1	0	1	0	0	0.248713400011184	NA	1
79	1	14	3	"go_reward"	1	1	0	1	1	1	1	0.314869800000452	NA	1
79	1	15	2	"nogo_punish"	1	-1	0	0	0	1	0	NA	NA	1
79	1	16	4	"nogo_reward"	1	0	1	0	1	0	0	0.255239899997832	NA	1
79	1	17	4	"nogo_reward"	1	0	1	0	0	1	1	NA	NA	1
79	1	18	3	"go_reward"	1	1	0	1	1	1	1	0.273400399979437	NA	1
79	1	19	1	"go_punish"	0	-1	0	1	0	0	0	NA	NA	1
79	1	20	2	"nogo_punish"	0	0	-1	0	1	0	0	0.55969679998816	NA	1
79	1	21	3	"go_reward"	1	1	0	1	1	1	1	0.326585700007854	NA	1
79	1	22	1	"go_punish"	1	0	-1	1	0	0	-1	NA	1	1
79	1	23	4	"nogo_reward"	1	0	1	0	0	1	1	NA	NA	1
79	1	24	2	"nogo_punish"	1	-1	0	0	0	1	0	NA	NA	1
79	1	25	2	"nogo_punish"	1	-1	0	0	0	1	0	NA	NA	1
79	1	26	2	"nogo_punish"	0	0	-1	0	0	1	-1	NA	0	1
79	1	27	1	"go_punish"	1	0	-1	1	1	1	0	0.239803800010122	NA	1
79	1	28	1	"go_punish"	1	0	-1	1	1	1	0	0.294598699983908	NA	1
79	1	29	4	"nogo_reward"	1	0	1	0	0	1	1	NA	NA	1
79	1	30	1	"go_punish"	0	-1	0	1	1	1	-1	0.289953500003321	0	1
79	1	31	1	"go_punish"	1	0	-1	1	1	1	0	0.251941900001839	NA	1
79	1	32	4	"nogo_reward"	1	0	1	0	0	1	1	NA	NA	1
79	1	33	4	"nogo_reward"	1	0	1	0	0	1	1	NA	NA	1
79	1	34	1	"go_punish"	1	0	-1	1	1	1	0	0.295481100009056	NA	1
79	1	35	4	"nogo_reward"	0	1	0	0	0	1	0	NA	NA	1
79	1	36	4	"nogo_reward"	0	1	0	0	0	1	0	NA	NA	1
79	1	37	3	"go_reward"	1	1	0	1	1	1	1	0.115443100017728	NA	1
79	1	38	3	"go_reward"	1	1	0	1	1	1	1	0.297677799972007	NA	1
79	1	39	2	"nogo_punish"	1	-1	0	0	0	1	0	NA	NA	1
79	1	40	2	"nogo_punish"	1	-1	0	0	0	1	0	NA	NA	1
79	1	41	4	"nogo_reward"	1	0	1	0	0	1	1	NA	NA	1
79	1	42	2	"nogo_punish"	1	-1	0	0	0	1	0	NA	NA	1
79	1	43	3	"go_reward"	1	1	0	1	1	1	1	0.412374100007583	NA	1
79	1	44	3	"go_reward"	0	0	1	1	1	1	0	0.368910100020003	NA	1
79	1	45	3	"go_reward"	1	1	0	1	1	1	1	0.348292999988189	NA	1
79	1	46	4	"nogo_reward"	0	1	0	0	0	1	0	NA	NA	1
79	1	47	1	"go_punish"	0	-1	0	1	1	1	-1	0.2658681999892	0	1
79	1	48	4	"nogo_reward"	1	0	1	0	0	1	1	NA	NA	1
79	1	49	1	"go_punish"	1	0	-1	1	1	1	0	0.414024500001688	NA	1
79	1	50	2	"nogo_punish"	1	-1	0	0	0	1	0	NA	NA	1
79	1	51	2	"nogo_punish"	1	-1	0	0	0	1	0	NA	NA	1
79	1	52	4	"nogo_reward"	0	1	0	0	0	1	0	NA	NA	1
79	1	53	3	"go_reward"	0	0	1	1	1	1	0	0.37906540001859	NA	1
79	1	54	2	"nogo_punish"	1	-1	0	0	0	1	0	NA	NA	1
79	1	55	3	"go_reward"	1	1	0	1	1	1	1	0.338133500015829	NA	1
79	1	56	3	"go_reward"	0	0	1	1	1	1	0	0.290378400008194	NA	1
79	1	57	1	"go_punish"	1	0	-1	1	1	1	0	0.259788900002604	NA	1
79	1	58	3	"go_reward"	1	1	0	1	1	1	1	0.381591700017452	NA	1
79	1	59	1	"go_punish"	0	-1	0	1	1	1	-1	0.319069199991645	0	1
79	1	60	2	"nogo_punish"	0	0	-1	0	0	1	-1	NA	1	1
79	2	61	2	"nogo_punish"	1	-1	0	0	0	1	0	NA	NA	1
79	2	62	3	"go_reward"	1	1	0	1	1	1	1	0.294503299985081	NA	1
79	2	63	2	"nogo_punish"	0	0	-1	0	1	0	0	0.267838500003563	NA	1
79	2	64	1	"go_punish"	0	-1	0	1	1	1	-1	0.369996599998558	1	1
79	2	65	1	"go_punish"	1	0	-1	1	0	0	-1	NA	0	1
79	2	66	3	"go_reward"	1	1	0	1	1	1	1	0.346247199981008	NA	1
79	2	67	1	"go_punish"	0	-1	0	1	1	1	-1	0.242966799996793	1	1
79	2	68	3	"go_reward"	1	1	0	1	1	1	1	0.34291080001276	NA	1
79	2	69	1	"go_punish"	1	0	-1	1	0	0	-1	NA	0	1
79	2	70	1	"go_punish"	1	0	-1	1	1	1	0	0.333688499988057	NA	1
79	2	71	3	"go_reward"	1	1	0	1	1	1	1	0.279121100000339	NA	1
79	2	72	3	"go_reward"	1	1	0	1	1	1	1	0.664329999999609	NA	1
79	2	73	4	"nogo_reward"	1	0	1	0	0	1	1	NA	NA	1
79	2	74	4	"nogo_reward"	1	0	1	0	0	1	1	NA	NA	1
79	2	75	1	"go_punish"	1	0	-1	1	1	1	0	0.255811000009999	NA	1
79	2	76	4	"nogo_reward"	1	0	1	0	0	1	1	NA	NA	1
79	2	77	4	"nogo_reward"	1	0	1	0	0	1	1	NA	NA	1
79	2	78	2	"nogo_punish"	1	-1	0	0	0	1	0	NA	NA	1
79	2	79	1	"go_punish"	0	-1	0	1	1	1	-1	0.298522899975069	1	1
79	2	80	3	"go_reward"	1	1	0	1	1	1	1	0.324611699994421	NA	1
79	2	81	2	"nogo_punish"	1	-1	0	0	0	1	0	NA	NA	1
79	2	82	1	"go_punish"	1	0	-1	1	1	1	0	0.30322659999365	NA	1
79	2	83	1	"go_punish"	1	0	-1	1	1	1	0	0.347361699998146	NA	1
79	2	84	3	"go_reward"	1	1	0	1	1	1	1	0.312978700007079	NA	1
79	2	85	2	"nogo_punish"	1	-1	0	0	0	1	0	NA	NA	1
79	2	86	2	"nogo_punish"	0	0	-1	0	0	1	-1	NA	0	1
79	2	87	2	"nogo_punish"	0	0	-1	0	0	1	-1	NA	0	1
79	2	88	3	"go_reward"	0	0	1	1	1	1	0	0.263851600000635	NA	1
79	2	89	2	"nogo_punish"	1	-1	0	0	0	1	0	NA	NA	1
79	2	90	1	"go_punish"	1	0	-1	1	1	1	0	0.283101000008173	NA	1
79	2	91	3	"go_reward"	1	1	0	1	1	1	1	0.283754200005205	NA	1
79	2	92	2	"nogo_punish"	0	0	-1	0	0	1	-1	NA	0	1
79	2	93	1	"go_punish"	1	0	-1	1	1	1	0	0.272901199990884	NA	1
79	2	94	2	"nogo_punish"	1	-1	0	0	1	0	-1	0.298111799987964	1	1
79	2	95	4	"nogo_reward"	0	1	0	0	0	1	0	NA	NA	1
79	2	96	1	"go_punish"	0	-1	0	1	1	1	-1	0.338900799979456	0	1
79	2	97	2	"nogo_punish"	0	0	-1	0	0	1	-1	NA	0	1
79	2	98	4	"nogo_reward"	1	0	1	0	0	1	1	NA	NA	1
79	2	99	3	"go_reward"	0	0	1	1	1	1	0	0.34865559998434	NA	1
79	2	100	4	"nogo_reward"	0	1	0	0	0	1	0	NA	NA	1
79	2	101	4	"nogo_reward"	1	0	1	0	0	1	1	NA	NA	1
79	2	102	3	"go_reward"	1	1	0	1	1	1	1	0.300972400000319	NA	1
79	2	103	3	"go_reward"	1	1	0	1	1	1	1	0.299850299983518	NA	1
79	2	104	1	"go_punish"	0	-1	0	1	1	1	-1	0.261567200010177	0	1
79	2	105	4	"nogo_reward"	1	0	1	0	0	1	1	NA	NA	1
79	2	106	3	"go_reward"	1	1	0	1	1	1	1	0.248249800002668	NA	1
79	2	107	4	"nogo_reward"	0	1	0	0	0	1	0	NA	NA	1
79	2	108	4	"nogo_reward"	1	0	1	0	0	1	1	NA	NA	1
79	2	109	4	"nogo_reward"	0	1	0	0	0	1	0	NA	NA	1
79	2	110	3	"go_reward"	1	1	0	1	1	1	1	0.489985199994408	NA	1
79	2	111	1	"go_punish"	1	0	-1	1	1	1	0	0.284527900017565	NA	1
79	2	112	4	"nogo_reward"	1	0	1	0	0	1	1	NA	NA	1
79	2	113	3	"go_reward"	0	0	1	1	1	1	0	0.421083599998383	NA	1
79	2	114	4	"nogo_reward"	0	1	0	0	1	0	1	0.397971700003836	NA	1
79	2	115	2	"nogo_punish"	1	-1	0	0	0	1	0	NA	NA	1
79	2	116	2	"nogo_punish"	1	-1	0	0	0	1	0	NA	NA	1
79	2	117	4	"nogo_reward"	1	0	1	0	0	1	1	NA	NA	1
79	2	118	2	"nogo_punish"	1	-1	0	0	0	1	0	NA	NA	1
79	2	119	1	"go_punish"	1	0	-1	1	1	1	0	0.231732099986402	NA	1
79	2	120	2	"nogo_punish"	1	-1	0	0	0	1	0	NA	NA	1
79	3	121	3	"go_reward"	1	1	0	1	1	1	1	0.312819200014928	NA	1
79	3	122	4	"nogo_reward"	1	0	1	0	0	1	1	NA	NA	1
79	3	123	1	"go_punish"	0	-1	0	1	1	1	-1	0.492050300003029	1	1
79	3	124	1	"go_punish"	1	0	-1	1	1	1	0	0.336372899997514	NA	1
79	3	125	1	"go_punish"	0	-1	0	1	1	1	-1	0.292018999985885	0	1
79	3	126	3	"go_reward"	0	0	1	1	1	1	0	0.531218099989928	NA	1
79	3	127	4	"nogo_reward"	1	0	1	0	0	1	1	NA	NA	1
79	3	128	1	"go_punish"	1	0	-1	1	1	1	0	0.308177400002023	NA	1
79	3	129	2	"nogo_punish"	1	-1	0	0	0	1	0	NA	NA	1
79	3	130	3	"go_reward"	1	1	0	1	1	1	1	0.25771479998366	NA	1
79	3	131	3	"go_reward"	1	1	0	1	1	1	1	0.398054699995555	NA	1
79	3	132	3	"go_reward"	1	1	0	1	1	1	1	0.38050289999228	NA	1
79	3	133	1	"go_punish"	1	0	-1	1	1	1	0	0.284105300001102	NA	1
79	3	134	2	"nogo_punish"	1	-1	0	0	0	1	0	NA	NA	1
79	3	135	4	"nogo_reward"	0	1	0	0	0	1	0	NA	NA	1
79	3	136	3	"go_reward"	1	1	0	1	1	1	1	0.400140799989458	NA	1
79	3	137	4	"nogo_reward"	1	0	1	0	0	1	1	NA	NA	1
79	3	138	2	"nogo_punish"	1	-1	0	0	0	1	0	NA	NA	1
79	3	139	3	"go_reward"	0	0	1	1	1	1	0	0.319592899992131	NA	1
79	3	140	3	"go_reward"	1	1	0	1	1	1	1	0.391302000003634	NA	1
79	3	141	4	"nogo_reward"	0	1	0	0	0	1	0	NA	NA	1
79	3	142	1	"go_punish"	1	0	-1	1	1	1	0	0.151801400003023	NA	1
79	3	143	2	"nogo_punish"	1	-1	0	0	0	1	0	NA	NA	1
79	3	144	3	"go_reward"	1	1	0	1	1	1	1	0.878566800005501	NA	1
79	3	145	3	"go_reward"	0	0	1	1	1	1	0	0.284233499987749	NA	1
79	3	146	2	"nogo_punish"	1	-1	0	0	0	1	0	NA	NA	1
79	3	147	2	"nogo_punish"	1	-1	0	0	0	1	0	NA	NA	1
79	3	148	3	"go_reward"	1	1	0	1	1	1	1	0.884444199997233	NA	1
79	3	149	2	"nogo_punish"	0	0	-1	0	0	1	-1	NA	0	1
79	3	150	2	"nogo_punish"	0	0	-1	0	0	1	-1	NA	0	1
79	3	151	1	"go_punish"	0	-1	0	1	1	1	-1	0.356937300006393	1	1
79	3	152	2	"nogo_punish"	1	-1	0	0	0	1	0	NA	NA	1
79	3	153	2	"nogo_punish"	1	-1	0	0	0	1	0	NA	NA	1
79	3	154	4	"nogo_reward"	1	0	1	0	0	1	1	NA	NA	1
79	3	155	2	"nogo_punish"	0	0	-1	0	0	1	-1	NA	0	1
79	3	156	1	"go_punish"	1	0	-1	1	1	1	0	0.338610099977814	NA	1
79	3	157	3	"go_reward"	0	0	1	1	1	1	0	0.32989130000351	NA	1
79	3	158	2	"nogo_punish"	1	-1	0	0	1	0	-1	0.78515929999412	1	1
79	3	159	2	"nogo_punish"	0	0	-1	0	0	1	-1	NA	1	1
79	3	160	4	"nogo_reward"	1	0	1	0	0	1	1	NA	NA	1
79	3	161	4	"nogo_reward"	1	0	1	0	0	1	1	NA	NA	1
79	3	162	1	"go_punish"	1	0	-1	1	1	1	0	0.328967999987071	NA	1
79	3	163	4	"nogo_reward"	1	0	1	0	0	1	1	NA	NA	1
79	3	164	4	"nogo_reward"	1	0	1	0	0	1	1	NA	NA	1
79	3	165	1	"go_punish"	1	0	-1	1	1	1	0	0.295392900006846	NA	1
79	3	166	4	"nogo_reward"	1	0	1	0	0	1	1	NA	NA	1
79	3	167	1	"go_punish"	1	0	-1	1	1	1	0	0.484530600020662	NA	1
79	3	168	1	"go_punish"	1	0	-1	1	1	1	0	0.30143500000122	NA	1
79	3	169	4	"nogo_reward"	1	0	1	0	0	1	1	NA	NA	1
79	3	170	3	"go_reward"	0	0	1	1	1	1	0	0.396682899998268	NA	1
79	3	171	1	"go_punish"	1	0	-1	1	1	1	0	0.276591900008498	NA	1
79	3	172	4	"nogo_reward"	1	0	1	0	0	1	1	NA	NA	1
79	3	173	4	"nogo_reward"	0	1	0	0	0	1	0	NA	NA	1
79	3	174	4	"nogo_reward"	0	1	0	0	0	1	0	NA	NA	1
79	3	175	1	"go_punish"	1	0	-1	1	1	1	0	0.305937400000403	NA	1
79	3	176	2	"nogo_punish"	1	-1	0	0	0	1	0	NA	NA	1
79	3	177	1	"go_punish"	1	0	-1	1	1	1	0	0.310634900000878	NA	1
79	3	178	2	"nogo_punish"	1	-1	0	0	0	1	0	NA	NA	1
79	3	179	3	"go_reward"	0	0	1	1	1	1	0	0.290904099994805	NA	1
79	3	180	3	"go_reward"	0	0	1	1	1	1	0	0.341765300021507	NA	1
101	1	1	1	"go_reward"	0	0	1	1	0	0	1	NA	NA	1
101	1	2	3	"go_punish"	0	-1	0	1	1	1	-1	0.568391699925996	1	1
101	1	3	3	"go_punish"	0	-1	0	1	0	0	0	NA	NA	1
101	1	4	4	"nogo_punish"	1	-1	0	0	1	0	-1	0.328997000004165	1	1
101	1	5	3	"go_punish"	1	0	-1	1	0	0	-1	NA	1	1
101	1	6	1	"go_reward"	1	1	0	1	1	1	1	0.322548600030132	NA	1
101	1	7	1	"go_reward"	1	1	0	1	1	1	1	0.349611999932676	NA	1
101	1	8	2	"nogo_reward"	1	0	1	0	1	0	0	0.517632099916227	NA	1
101	1	9	2	"nogo_reward"	1	0	1	0	1	0	0	0.383527100086212	NA	1
101	1	10	2	"nogo_reward"	1	0	1	0	1	0	0	0.333327000029385	NA	1
101	1	11	1	"go_reward"	1	1	0	1	1	1	1	0.310751600074582	NA	1
101	1	12	2	"nogo_reward"	0	1	0	0	1	0	1	0.417262000031769	NA	1
101	1	13	1	"go_reward"	1	1	0	1	1	1	1	0.365696800057776	NA	1
101	1	14	4	"nogo_punish"	1	-1	0	0	0	1	0	NA	NA	1
101	1	15	2	"nogo_reward"	0	1	0	0	1	0	1	0.319011499988846	NA	1
101	1	16	3	"go_punish"	1	0	-1	1	0	0	-1	NA	1	1
101	1	17	3	"go_punish"	0	-1	0	1	0	0	0	NA	NA	1
101	1	18	4	"nogo_punish"	1	-1	0	0	0	1	0	NA	NA	1
101	1	19	1	"go_reward"	1	1	0	1	1	1	1	0.542900900007226	NA	1
101	1	20	4	"nogo_punish"	1	-1	0	0	0	1	0	NA	NA	1
101	1	21	3	"go_punish"	1	0	-1	1	1	1	0	0.420127500081435	NA	1
101	1	22	1	"go_reward"	0	0	1	1	1	1	0	0.387967000016943	NA	1
101	1	23	4	"nogo_punish"	1	-1	0	0	0	1	0	NA	NA	1
101	1	24	2	"nogo_reward"	0	1	0	0	1	0	1	0.462932099937461	NA	1
101	1	25	2	"nogo_reward"	0	1	0	0	1	0	1	0.333937000017613	NA	1
101	1	26	2	"nogo_reward"	1	0	1	0	1	0	0	0.513921899953857	NA	1
101	1	27	1	"go_reward"	0	0	1	1	1	1	0	0.335360399913043	NA	1
101	1	28	3	"go_punish"	1	0	-1	1	0	0	-1	NA	0	1
101	1	29	4	"nogo_punish"	1	-1	0	0	0	1	0	NA	NA	1
101	1	30	1	"go_reward"	1	1	0	1	1	1	1	0.467507399967872	NA	1
101	1	31	3	"go_punish"	0	-1	0	1	0	0	0	NA	NA	1
101	1	32	2	"nogo_reward"	1	0	1	0	1	0	0	0.353179699974135	NA	1
101	1	33	4	"nogo_punish"	1	-1	0	0	0	1	0	NA	NA	1
101	1	34	1	"go_reward"	1	1	0	1	1	1	1	0.478757700067945	NA	1
101	1	35	4	"nogo_punish"	1	-1	0	0	0	1	0	NA	NA	1
101	1	36	4	"nogo_punish"	1	-1	0	0	0	1	0	NA	NA	1
101	1	37	4	"nogo_punish"	1	-1	0	0	0	1	0	NA	NA	1
101	1	38	3	"go_punish"	0	-1	0	1	0	0	0	NA	NA	1
101	1	39	4	"nogo_punish"	1	-1	0	0	0	1	0	NA	NA	1
101	1	40	3	"go_punish"	1	0	-1	1	0	0	-1	NA	0	1
101	1	41	1	"go_reward"	1	1	0	1	1	1	1	0.369847900001332	NA	1
101	1	42	3	"go_punish"	1	0	-1	1	0	0	-1	NA	0	1
101	1	43	1	"go_reward"	1	1	0	1	1	1	1	0.309708000044338	NA	1
101	1	44	3	"go_punish"	1	0	-1	1	1	1	0	0.291218099999241	NA	1
101	1	45	2	"nogo_reward"	0	1	0	0	1	0	1	0.404961899970658	NA	1
101	1	46	2	"nogo_reward"	1	0	1	0	1	0	0	0.303275799960829	NA	1
101	1	47	4	"nogo_punish"	1	-1	0	0	0	1	0	NA	NA	1
101	1	48	4	"nogo_punish"	1	-1	0	0	0	1	0	NA	NA	1
101	1	49	1	"go_reward"	0	0	1	1	1	1	0	0.389240699936636	NA	1
101	1	50	2	"nogo_reward"	0	1	0	0	1	0	1	0.859226999920793	NA	1
101	1	51	4	"nogo_punish"	0	0	-1	0	0	1	-1	NA	0	1
101	1	52	3	"go_punish"	1	0	-1	1	1	1	0	0.318493200000376	NA	1
101	1	53	2	"nogo_reward"	1	0	1	0	1	0	0	0.348182899993844	NA	1
101	1	54	2	"nogo_reward"	1	0	1	0	1	0	0	0.300657899933867	NA	1
101	1	55	3	"go_punish"	1	0	-1	1	1	1	0	0.544267100049183	NA	1
101	1	56	3	"go_punish"	1	0	-1	1	1	1	0	0.378092900034971	NA	1
101	1	57	2	"nogo_reward"	1	0	1	0	1	0	0	0.581854399992153	NA	1
101	1	58	4	"nogo_punish"	0	0	-1	0	0	1	-1	NA	0	1
101	1	59	1	"go_reward"	1	1	0	1	1	1	1	0.61856460000854	NA	1
101	1	60	1	"go_reward"	0	0	1	1	1	1	0	0.304555299924686	NA	1
101	2	61	2	"nogo_reward"	1	0	1	0	1	0	0	0.481817699968815	NA	1
101	2	62	4	"nogo_punish"	1	-1	0	0	0	1	0	NA	NA	1
101	2	63	3	"go_punish"	1	0	-1	1	1	1	0	0.513053299975581	NA	1
101	2	64	1	"go_reward"	0	0	1	1	1	1	0	0.762199399992824	NA	1
101	2	65	4	"nogo_punish"	1	-1	0	0	0	1	0	NA	NA	1
101	2	66	1	"go_reward"	0	0	1	1	1	1	0	0.416453700046986	NA	1
101	2	67	1	"go_reward"	1	1	0	1	1	1	1	0.359093499951996	NA	1
101	2	68	2	"nogo_reward"	0	1	0	0	1	0	1	0.369493400095962	NA	1
101	2	69	3	"go_punish"	1	0	-1	1	0	0	-1	NA	1	1
101	2	70	4	"nogo_punish"	0	0	-1	0	0	1	-1	NA	0	1
101	2	71	2	"nogo_reward"	1	0	1	0	1	0	0	0.309122400009073	NA	1
101	2	72	4	"nogo_punish"	0	0	-1	0	0	1	-1	NA	1	1
101	2	73	2	"nogo_reward"	1	0	1	0	1	0	0	0.295781900058501	NA	1
101	2	74	1	"go_reward"	0	0	1	1	1	1	0	0.262989200069569	NA	1
101	2	75	3	"go_punish"	0	-1	0	1	1	1	-1	0.406269499915652	0	1
101	2	76	2	"nogo_reward"	1	0	1	0	1	0	0	0.323772000032477	NA	1
101	2	77	1	"go_reward"	1	1	0	1	1	1	1	0.337124700075947	NA	1
101	2	78	1	"go_reward"	1	1	0	1	1	1	1	0.418775800033472	NA	1
101	2	79	4	"nogo_punish"	1	-1	0	0	0	1	0	NA	NA	1
101	2	80	3	"go_punish"	1	0	-1	1	1	1	0	0.67245129996445	NA	1
101	2	81	2	"nogo_reward"	1	0	1	0	1	0	0	0.358864399953745	NA	1
101	2	82	4	"nogo_punish"	1	-1	0	0	0	1	0	NA	NA	1
101	2	83	2	"nogo_reward"	0	1	0	0	1	0	1	0.355669800075702	NA	1
101	2	84	1	"go_reward"	0	0	1	1	1	1	0	0.288844099966809	NA	1
101	2	85	4	"nogo_punish"	0	0	-1	0	0	1	-1	NA	0	1
101	2	86	3	"go_punish"	1	0	-1	1	0	0	-1	NA	1	1
101	2	87	4	"nogo_punish"	0	0	-1	0	0	1	-1	NA	0	1
101	2	88	1	"go_reward"	1	1	0	1	1	1	1	0.304282699944451	NA	1
101	2	89	1	"go_reward"	1	1	0	1	1	1	1	0.357115599908866	NA	1
101	2	90	3	"go_punish"	1	0	-1	1	0	0	-1	NA	1	1
101	2	91	4	"nogo_punish"	0	0	-1	0	0	1	-1	NA	0	1
101	2	92	2	"nogo_reward"	1	0	1	0	1	0	0	0.319053099956363	NA	1
101	2	93	2	"nogo_reward"	1	0	1	0	1	0	0	0.538235899992287	NA	1
101	2	94	2	"nogo_reward"	1	0	1	0	1	0	0	0.97576860000845	NA	1
101	2	95	3	"go_punish"	1	0	-1	1	0	0	-1	NA	1	1
101	2	96	1	"go_reward"	0	0	1	1	1	1	0	0.440577800036408	NA	1
101	2	97	2	"nogo_reward"	0	1	0	0	1	0	1	0.313397799967788	NA	1
101	2	98	3	"go_punish"	1	0	-1	1	1	1	0	0.512384900008328	NA	1
101	2	99	3	"go_punish"	0	-1	0	1	1	1	-1	0.37238190008793	0	1
101	2	100	1	"go_reward"	1	1	0	1	1	1	1	0.486081200069748	NA	1
101	2	101	3	"go_punish"	1	0	-1	1	1	1	0	0.512464000028558	NA	1
101	2	102	3	"go_punish"	1	0	-1	1	1	1	0	0.523010100005195	NA	1
101	2	103	3	"go_punish"	1	0	-1	1	1	1	0	0.585244400077499	NA	1
101	2	104	2	"nogo_reward"	1	0	1	0	1	0	0	0.383487499901094	NA	1
101	2	105	4	"nogo_punish"	1	-1	0	0	0	1	0	NA	NA	1
101	2	106	1	"go_reward"	1	1	0	1	1	1	1	0.455387800000608	NA	1
101	2	107	2	"nogo_reward"	1	0	1	0	1	0	0	0.39730499999132	NA	1
101	2	108	1	"go_reward"	0	0	1	1	1	1	0	0.707318200031295	NA	1
101	2	109	3	"go_punish"	1	0	-1	1	1	1	0	0.554406200069934	NA	1
101	2	110	2	"nogo_reward"	1	0	1	0	0	1	1	NA	NA	1
101	2	111	4	"nogo_punish"	0	0	-1	0	0	1	-1	NA	0	1
101	2	112	2	"nogo_reward"	1	0	1	0	1	0	0	0.364282199996524	NA	1
101	2	113	3	"go_punish"	1	0	-1	1	0	0	-1	NA	0	1
101	2	114	1	"go_reward"	1	1	0	1	1	1	1	0.386985299992375	NA	1
101	2	115	4	"nogo_punish"	1	-1	0	0	0	1	0	NA	NA	1
101	2	116	4	"nogo_punish"	1	-1	0	0	0	1	0	NA	NA	1
101	2	117	3	"go_punish"	1	0	-1	1	1	1	0	0.415541100082919	NA	1
101	2	118	4	"nogo_punish"	1	-1	0	0	0	1	0	NA	NA	1
101	2	119	1	"go_reward"	0	0	1	1	1	1	0	0.645678200060502	NA	1
101	2	120	4	"nogo_punish"	1	-1	0	0	0	1	0	NA	NA	1
101	3	121	4	"nogo_punish"	0	0	-1	0	0	1	-1	NA	1	1
101	3	122	2	"nogo_reward"	1	0	1	0	1	0	0	0.334834400098771	NA	1
101	3	123	4	"nogo_punish"	1	-1	0	0	0	1	0	NA	NA	1
101	3	124	3	"go_punish"	0	-1	0	1	1	1	-1	0.317519799922593	1	1
101	3	125	4	"nogo_punish"	1	-1	0	0	0	1	0	NA	NA	1
101	3	126	3	"go_punish"	0	-1	0	1	1	1	-1	0.779352799989283	0	1
101	3	127	1	"go_reward"	1	1	0	1	1	1	1	0.444422699976713	NA	1
101	3	128	1	"go_reward"	1	1	0	1	1	1	1	0.316646700026467	NA	1
101	3	129	2	"nogo_reward"	1	0	1	0	1	0	0	0.304578299983405	NA	1
101	3	130	3	"go_punish"	1	0	-1	1	0	0	-1	NA	0	1
101	3	131	1	"go_reward"	1	1	0	1	1	1	1	0.495902199996635	NA	1
101	3	132	4	"nogo_punish"	1	-1	0	0	0	1	0	NA	NA	1
101	3	133	2	"nogo_reward"	1	0	1	0	1	0	0	0.520114699960686	NA	1
101	3	134	3	"go_punish"	1	0	-1	1	0	0	-1	NA	1	1
101	3	135	3	"go_punish"	1	0	-1	1	1	1	0	0.401597400079481	NA	1
101	3	136	3	"go_punish"	1	0	-1	1	1	1	0	0.323720799991861	NA	1
101	3	137	2	"nogo_reward"	1	0	1	0	1	0	0	0.551953300018795	NA	1
101	3	138	3	"go_punish"	1	0	-1	1	1	1	0	0.452381299925037	NA	1
101	3	139	2	"nogo_reward"	1	0	1	0	1	0	0	0.497784000006504	NA	1
101	3	140	4	"nogo_punish"	1	-1	0	0	0	1	0	NA	NA	1
101	3	141	4	"nogo_punish"	1	-1	0	0	0	1	0	NA	NA	1
101	3	142	1	"go_reward"	0	0	1	1	1	1	0	0.351596000022255	NA	1
101	3	143	2	"nogo_reward"	0	1	0	0	1	0	1	0.341562599991448	NA	1
101	3	144	4	"nogo_punish"	0	0	-1	0	0	1	-1	NA	0	1
101	3	145	2	"nogo_reward"	1	0	1	0	1	0	0	0.505441299988888	NA	1
101	3	146	3	"go_punish"	0	-1	0	1	1	1	-1	0.278465999988839	0	1
101	3	147	4	"nogo_punish"	1	-1	0	0	0	1	0	NA	NA	1
101	3	148	3	"go_punish"	1	0	-1	1	1	1	0	0.46675789996516	NA	1
101	3	149	4	"nogo_punish"	0	0	-1	0	0	1	-1	NA	1	1
101	3	150	1	"go_reward"	0	0	1	1	1	1	0	0.35150650003925	NA	1
101	3	151	2	"nogo_reward"	1	0	1	0	1	0	0	0.410164000000805	NA	1
101	3	152	2	"nogo_reward"	1	0	1	0	0	1	1	NA	NA	1
101	3	153	4	"nogo_punish"	1	-1	0	0	0	1	0	NA	NA	1
101	3	154	1	"go_reward"	0	0	1	1	0	0	1	NA	NA	1
101	3	155	4	"nogo_punish"	0	0	-1	0	0	1	-1	NA	0	1
101	3	156	1	"go_reward"	1	1	0	1	1	1	1	0.394915799959563	NA	1
101	3	157	3	"go_punish"	1	0	-1	1	0	0	-1	NA	0	1
101	3	158	3	"go_punish"	0	-1	0	1	0	0	0	NA	NA	1
101	3	159	4	"nogo_punish"	0	0	-1	0	0	1	-1	NA	0	1
101	3	160	3	"go_punish"	1	0	-1	1	0	0	-1	NA	0	1
101	3	161	3	"go_punish"	1	0	-1	1	1	1	0	0.417792899999767	NA	1
101	3	162	2	"nogo_reward"	1	0	1	0	1	0	0	0.302809500019066	NA	1
101	3	163	4	"nogo_punish"	1	-1	0	0	0	1	0	NA	NA	1
101	3	164	2	"nogo_reward"	0	1	0	0	1	0	1	0.325146200018935	NA	1
101	3	165	1	"go_reward"	1	1	0	1	0	0	0	NA	NA	1
101	3	166	4	"nogo_punish"	1	-1	0	0	0	1	0	NA	NA	1
101	3	167	2	"nogo_reward"	1	0	1	0	0	1	1	NA	NA	1
101	3	168	3	"go_punish"	1	0	-1	1	1	1	0	0.324788599973544	NA	1
101	3	169	1	"go_reward"	1	1	0	1	1	1	1	0.310252900002524	NA	1
101	3	170	4	"nogo_punish"	1	-1	0	0	0	1	0	NA	NA	1
101	3	171	2	"nogo_reward"	1	0	1	0	1	0	0	0.680677800090052	NA	1
101	3	172	3	"go_punish"	0	-1	0	1	0	0	0	NA	NA	1
101	3	173	1	"go_reward"	0	0	1	1	1	1	0	0.388799899956211	NA	1
101	3	174	1	"go_reward"	1	1	0	1	0	0	0	NA	NA	1
101	3	175	1	"go_reward"	0	0	1	1	1	1	0	0.346925799967721	NA	1
101	3	176	1	"go_reward"	0	0	1	1	0	0	1	NA	NA	1
101	3	177	2	"nogo_reward"	1	0	1	0	1	0	0	0.280363800004125	NA	1
101	3	178	2	"nogo_reward"	1	0	1	0	0	1	1	NA	NA	1
101	3	179	1	"go_reward"	1	1	0	1	1	1	1	0.356596400029957	NA	1
101	3	180	1	"go_reward"	1	1	0	1	1	1	1	0.392717499984428	NA	1
108	1	1	3	"nogo_reward"	1	0	1	0	1	0	0	0.265461899999991	NA	1
108	1	2	2	"go_reward"	0	0	1	1	1	1	0	0.30594579999979	NA	1
108	1	3	2	"go_reward"	0	0	1	1	0	0	1	NA	NA	1
108	1	4	3	"nogo_reward"	1	0	1	0	1	0	0	0.659141900000122	NA	1
108	1	5	2	"go_reward"	1	1	0	1	1	1	1	0.273252899999989	NA	1
108	1	6	2	"go_reward"	1	1	0	1	0	0	0	NA	NA	1
108	1	7	1	"nogo_punish"	1	-1	0	0	1	0	-1	0.245487400000002	1	1
108	1	8	4	"go_punish"	1	0	-1	1	0	0	-1	NA	0	1
108	1	9	4	"go_punish"	1	0	-1	1	1	1	0	0.954578500000025	NA	1
108	1	10	2	"go_reward"	0	0	1	1	1	1	0	0.500631899999917	NA	1
108	1	11	4	"go_punish"	1	0	-1	1	0	0	-1	NA	0	1
108	1	12	3	"nogo_reward"	1	0	1	0	1	0	0	0.445834300000115	NA	1
108	1	13	1	"nogo_punish"	1	-1	0	0	1	0	-1	0.374111699999958	1	1
108	1	14	1	"nogo_punish"	0	0	-1	0	0	1	-1	NA	0	1
108	1	15	3	"nogo_reward"	1	0	1	0	0	1	1	NA	NA	1
108	1	16	2	"go_reward"	1	1	0	1	1	1	1	0.258823599999687	NA	1
108	1	17	3	"nogo_reward"	0	1	0	0	0	1	0	NA	NA	1
108	1	18	4	"go_punish"	0	-1	0	1	0	0	0	NA	NA	1
108	1	19	3	"nogo_reward"	1	0	1	0	0	1	1	NA	NA	1
108	1	20	1	"nogo_punish"	1	-1	0	0	1	0	-1	0.391000899999653	0	1
108	1	21	3	"nogo_reward"	1	0	1	0	0	1	1	NA	NA	1
108	1	22	4	"go_punish"	1	0	-1	1	0	0	-1	NA	0	1
108	1	23	1	"nogo_punish"	1	-1	0	0	1	0	-1	0.246300799999972	1	1
108	1	24	3	"nogo_reward"	0	1	0	0	0	1	0	NA	NA	1
108	1	25	1	"nogo_punish"	1	-1	0	0	1	0	-1	0.868412100000114	1	1
108	1	26	2	"go_reward"	1	1	0	1	1	1	1	0.312624000000142	NA	1
108	1	27	3	"nogo_reward"	1	0	1	0	0	1	1	NA	NA	1
108	1	28	2	"go_reward"	1	1	0	1	1	1	1	0.268628799999988	NA	1
108	1	29	4	"go_punish"	1	0	-1	1	0	0	-1	NA	1	1
108	1	30	3	"nogo_reward"	1	0	1	0	0	1	1	NA	NA	1
108	1	31	1	"nogo_punish"	1	-1	0	0	0	1	0	NA	NA	1
108	1	32	1	"nogo_punish"	1	-1	0	0	0	1	0	NA	NA	1
108	1	33	2	"go_reward"	1	1	0	1	1	1	1	0.341435000000274	NA	1
108	1	34	4	"go_punish"	1	0	-1	1	1	1	0	0.254497299999912	NA	1
108	1	35	2	"go_reward"	0	0	1	1	1	1	0	0.237017299999934	NA	1
108	1	36	3	"nogo_reward"	0	1	0	0	0	1	0	NA	NA	1
108	1	37	4	"go_punish"	0	-1	0	1	1	1	-1	0.252668700000413	0	1
108	1	38	1	"nogo_punish"	0	0	-1	0	0	1	-1	NA	0	1
108	1	39	2	"go_reward"	1	1	0	1	1	1	1	0.242567999999665	NA	1
108	1	40	3	"nogo_reward"	0	1	0	0	0	1	0	NA	NA	1
108	1	41	4	"go_punish"	1	0	-1	1	1	1	0	0.313488199999938	NA	1
108	1	42	4	"go_punish"	0	-1	0	1	1	1	-1	0.257689400000345	0	1
108	1	43	3	"nogo_reward"	1	0	1	0	0	1	1	NA	NA	1
108	1	44	1	"nogo_punish"	0	0	-1	0	0	1	-1	NA	1	1
108	1	45	1	"nogo_punish"	1	-1	0	0	0	1	0	NA	NA	1
108	1	46	1	"nogo_punish"	0	0	-1	0	0	1	-1	NA	0	1
108	1	47	4	"go_punish"	1	0	-1	1	1	1	0	0.290828499999861	NA	1
108	1	48	4	"go_punish"	1	0	-1	1	1	1	0	0.274867800000266	NA	1
108	1	49	2	"go_reward"	1	1	0	1	1	1	1	0.304660400000103	NA	1
108	1	50	1	"nogo_punish"	0	0	-1	0	0	1	-1	NA	0	1
108	1	51	4	"go_punish"	1	0	-1	1	1	1	0	0.757018699999207	NA	1
108	1	52	4	"go_punish"	0	-1	0	1	1	1	-1	0.291328400000566	0	1
108	1	53	2	"go_reward"	0	0	1	1	1	1	0	0.350146400000085	NA	1
108	1	54	4	"go_punish"	1	0	-1	1	1	1	0	0.300407600000653	NA	1
108	1	55	1	"nogo_punish"	1	-1	0	0	0	1	0	NA	NA	1
108	1	56	2	"go_reward"	1	1	0	1	1	1	1	0.251435299999685	NA	1
108	1	57	3	"nogo_reward"	1	0	1	0	0	1	1	NA	NA	1
108	1	58	2	"go_reward"	1	1	0	1	1	1	1	0.483374499999627	NA	1
108	1	59	3	"nogo_reward"	1	0	1	0	0	1	1	NA	NA	1
108	1	60	1	"nogo_punish"	1	-1	0	0	0	1	0	NA	NA	1
108	2	61	4	"go_punish"	1	0	-1	1	1	1	0	0.637141500000325	NA	1
108	2	62	3	"nogo_reward"	1	0	1	0	0	1	1	NA	NA	1
108	2	63	4	"go_punish"	0	-1	0	1	1	1	-1	0.346280100000513	1	1
108	2	64	2	"go_reward"	1	1	0	1	1	1	1	0.32776610000019	NA	1
108	2	65	1	"nogo_punish"	1	-1	0	0	0	1	0	NA	NA	1
108	2	66	3	"nogo_reward"	0	1	0	0	0	1	0	NA	NA	1
108	2	67	1	"nogo_punish"	1	-1	0	0	0	1	0	NA	NA	1
108	2	68	3	"nogo_reward"	0	1	0	0	0	1	0	NA	NA	1
108	2	69	2	"go_reward"	1	1	0	1	1	1	1	0.252134599999408	NA	1
108	2	70	2	"go_reward"	1	1	0	1	0	0	0	NA	NA	1
108	2	71	3	"nogo_reward"	1	0	1	0	0	1	1	NA	NA	1
108	2	72	3	"nogo_reward"	1	0	1	0	0	1	1	NA	NA	1
108	2	73	4	"go_punish"	0	-1	0	1	1	1	-1	0.237824400000136	0	1
108	2	74	1	"nogo_punish"	1	-1	0	0	0	1	0	NA	NA	1
108	2	75	4	"go_punish"	1	0	-1	1	1	1	0	0.286177599999974	NA	1
108	2	76	4	"go_punish"	1	0	-1	1	1	1	0	0.306442400000378	NA	1
108	2	77	1	"nogo_punish"	0	0	-1	0	0	1	-1	NA	0	1
108	2	78	3	"nogo_reward"	1	0	1	0	0	1	1	NA	NA	1
108	2	79	1	"nogo_punish"	1	-1	0	0	0	1	0	NA	NA	1
108	2	80	3	"nogo_reward"	1	0	1	0	0	1	1	NA	NA	1
108	2	81	1	"nogo_punish"	1	-1	0	0	0	1	0	NA	NA	1
108	2	82	1	"nogo_punish"	0	0	-1	0	0	1	-1	NA	0	1
108	2	83	1	"nogo_punish"	0	0	-1	0	0	1	-1	NA	0	1
108	2	84	4	"go_punish"	0	-1	0	1	1	1	-1	0.239184699999896	0	1
108	2	85	2	"go_reward"	0	0	1	1	1	1	0	0.248746100000062	NA	1
108	2	86	4	"go_punish"	0	-1	0	1	1	1	-1	0.283604399999604	0	1
108	2	87	2	"go_reward"	1	1	0	1	1	1	1	0.27134709999973	NA	1
108	2	88	4	"go_punish"	1	0	-1	1	1	1	0	0.521767600000203	NA	1
108	2	89	2	"go_reward"	1	1	0	1	1	1	1	0.325880299999881	NA	1
108	2	90	4	"go_punish"	0	-1	0	1	1	1	-1	0.386844300000121	1	1
108	2	91	4	"go_punish"	1	0	-1	1	1	1	0	0.243729100000564	NA	1
108	2	92	1	"nogo_punish"	1	-1	0	0	0	1	0	NA	NA	1
108	2	93	3	"nogo_reward"	1	0	1	0	0	1	1	NA	NA	1
108	2	94	4	"go_punish"	1	0	-1	1	1	1	0	0.24409949999972	NA	1
108	2	95	1	"nogo_punish"	1	-1	0	0	0	1	0	NA	NA	1
108	2	96	4	"go_punish"	0	-1	0	1	1	1	-1	0.263465299999552	1	1
108	2	97	1	"nogo_punish"	1	-1	0	0	0	1	0	NA	NA	1
108	2	98	2	"go_reward"	1	1	0	1	1	1	1	0.267286600000261	NA	1
108	2	99	2	"go_reward"	0	0	1	1	1	1	0	0.256880099999762	NA	1
108	2	100	1	"nogo_punish"	1	-1	0	0	0	1	0	NA	NA	1
108	2	101	3	"nogo_reward"	1	0	1	0	0	1	1	NA	NA	1
108	2	102	1	"nogo_punish"	1	-1	0	0	0	1	0	NA	NA	1
108	2	103	2	"go_reward"	0	0	1	1	1	1	0	0.298870399999942	NA	1
108	2	104	3	"nogo_reward"	1	0	1	0	0	1	1	NA	NA	1
108	2	105	1	"nogo_punish"	1	-1	0	0	0	1	0	NA	NA	1
108	2	106	2	"go_reward"	0	0	1	1	1	1	0	0.257004199999756	NA	1
108	2	107	4	"go_punish"	1	0	-1	1	1	1	0	0.2747487000006	NA	1
108	2	108	2	"go_reward"	0	0	1	1	1	1	0	0.254127600000174	NA	1
108	2	109	3	"nogo_reward"	1	0	1	0	0	1	1	NA	NA	1
108	2	110	1	"nogo_punish"	1	-1	0	0	0	1	0	NA	NA	1
108	2	111	3	"nogo_reward"	1	0	1	0	0	1	1	NA	NA	1
108	2	112	3	"nogo_reward"	0	1	0	0	0	1	0	NA	NA	1
108	2	113	4	"go_punish"	1	0	-1	1	1	1	0	0.255845199999385	NA	1
108	2	114	2	"go_reward"	1	1	0	1	1	1	1	0.281909399999677	NA	1
108	2	115	2	"go_reward"	1	1	0	1	1	1	1	0.258950200000072	NA	1
108	2	116	2	"go_reward"	1	1	0	1	1	1	1	0.270015799999783	NA	1
108	2	117	4	"go_punish"	0	-1	0	1	1	1	-1	0.296294400000079	0	1
108	2	118	2	"go_reward"	1	1	0	1	1	1	1	0.299527099999978	NA	1
108	2	119	3	"nogo_reward"	1	0	1	0	0	1	1	NA	NA	1
108	2	120	3	"nogo_reward"	1	0	1	0	0	1	1	NA	NA	1
108	3	121	2	"go_reward"	1	1	0	1	1	1	1	0.253501400000459	NA	1
108	3	122	1	"nogo_punish"	1	-1	0	0	0	1	0	NA	NA	1
108	3	123	2	"go_reward"	1	1	0	1	1	1	1	0.278816799999731	NA	1
108	3	124	3	"nogo_reward"	0	1	0	0	0	1	0	NA	NA	1
108	3	125	4	"go_punish"	1	0	-1	1	1	1	0	0.283528299999489	NA	1
108	3	126	4	"go_punish"	0	-1	0	1	1	1	-1	0.362676400000055	1	1
108	3	127	1	"nogo_punish"	1	-1	0	0	0	1	0	NA	NA	1
108	3	128	4	"go_punish"	1	0	-1	1	1	1	0	0.267402200000106	NA	1
108	3	129	3	"nogo_reward"	0	1	0	0	0	1	0	NA	NA	1
108	3	130	3	"nogo_reward"	0	1	0	0	0	1	0	NA	NA	1
108	3	131	4	"go_punish"	1	0	-1	1	1	1	0	0.448568700000578	NA	1
108	3	132	1	"nogo_punish"	1	-1	0	0	0	1	0	NA	NA	1
108	3	133	4	"go_punish"	0	-1	0	1	1	1	-1	0.257056200000079	1	1
108	3	134	4	"go_punish"	1	0	-1	1	1	1	0	0.318871499999659	NA	1
108	3	135	4	"go_punish"	1	0	-1	1	1	1	0	0.338412600000083	NA	1
108	3	136	1	"nogo_punish"	1	-1	0	0	0	1	0	NA	NA	1
108	3	137	3	"nogo_reward"	1	0	1	0	0	1	1	NA	NA	1
108	3	138	1	"nogo_punish"	1	-1	0	0	0	1	0	NA	NA	1
108	3	139	1	"nogo_punish"	1	-1	0	0	0	1	0	NA	NA	1
108	3	140	4	"go_punish"	1	0	-1	1	1	1	0	0.304323699999259	NA	1
108	3	141	4	"go_punish"	0	-1	0	1	1	1	-1	0.35142739999992	0	1
108	3	142	1	"nogo_punish"	1	-1	0	0	0	1	0	NA	NA	1
108	3	143	3	"nogo_reward"	1	0	1	0	0	1	1	NA	NA	1
108	3	144	2	"go_reward"	1	1	0	1	1	1	1	0.279475899999852	NA	1
108	3	145	3	"nogo_reward"	1	0	1	0	0	1	1	NA	NA	1
108	3	146	3	"nogo_reward"	0	1	0	0	0	1	0	NA	NA	1
108	3	147	3	"nogo_reward"	1	0	1	0	0	1	1	NA	NA	1
108	3	148	3	"nogo_reward"	1	0	1	0	0	1	1	NA	NA	1
108	3	149	2	"go_reward"	1	1	0	1	1	1	1	0.311020899999676	NA	1
108	3	150	1	"nogo_punish"	0	0	-1	0	0	1	-1	NA	0	1
108	3	151	2	"go_reward"	0	0	1	1	1	1	0	0.294891300000018	NA	1
108	3	152	4	"go_punish"	0	-1	0	1	1	1	-1	0.33097590000034	0	1
108	3	153	2	"go_reward"	0	0	1	1	1	1	0	0.258172199999535	NA	1
108	3	154	4	"go_punish"	0	-1	0	1	1	1	-1	0.280898299999535	0	1
108	3	155	2	"go_reward"	1	1	0	1	1	1	1	0.24324340000021	NA	1
108	3	156	3	"nogo_reward"	1	0	1	0	0	1	1	NA	NA	1
108	3	157	2	"go_reward"	1	1	0	1	1	1	1	0.296236600000157	NA	1
108	3	158	4	"go_punish"	1	0	-1	1	1	1	0	0.298766599999908	NA	1
108	3	159	1	"nogo_punish"	1	-1	0	0	0	1	0	NA	NA	1
108	3	160	1	"nogo_punish"	0	0	-1	0	0	1	-1	NA	1	1
108	3	161	2	"go_reward"	1	1	0	1	1	1	1	0.237392699999873	NA	1
108	3	162	2	"go_reward"	1	1	0	1	1	1	1	0.26221919999989	NA	1
108	3	163	1	"nogo_punish"	1	-1	0	0	0	1	0	NA	NA	1
108	3	164	1	"nogo_punish"	1	-1	0	0	0	1	0	NA	NA	1
108	3	165	3	"nogo_reward"	0	1	0	0	0	1	0	NA	NA	1
108	3	166	2	"go_reward"	1	1	0	1	1	1	1	0.256083099999159	NA	1
108	3	167	3	"nogo_reward"	1	0	1	0	0	1	1	NA	NA	1
108	3	168	4	"go_punish"	1	0	-1	1	1	1	0	0.280724199999895	NA	1
108	3	169	4	"go_punish"	1	0	-1	1	1	1	0	0.273608899999999	NA	1
108	3	170	3	"nogo_reward"	1	0	1	0	0	1	1	NA	NA	1
108	3	171	2	"go_reward"	0	0	1	1	1	1	0	0.408212899999853	NA	1
108	3	172	4	"go_punish"	1	0	-1	1	1	1	0	0.305364499999996	NA	1
108	3	173	2	"go_reward"	1	1	0	1	1	1	1	0.294110799999544	NA	1
108	3	174	1	"nogo_punish"	1	-1	0	0	0	1	0	NA	NA	1
108	3	175	1	"nogo_punish"	0	0	-1	0	0	1	-1	NA	0	1
108	3	176	2	"go_reward"	0	0	1	1	1	1	0	0.314359699999841	NA	1
108	3	177	3	"nogo_reward"	1	0	1	0	0	1	1	NA	NA	1
108	3	178	1	"nogo_punish"	1	-1	0	0	0	1	0	NA	NA	1
108	3	179	3	"nogo_reward"	0	1	0	0	0	1	0	NA	NA	1
108	3	180	2	"go_reward"	1	1	0	1	1	1	1	0.274185799999941	NA	1
110	1	1	1	"nogo_reward"	1	0	1	0	1	0	0	0.595932099997299	NA	1
110	1	2	3	"nogo_punish"	1	-1	0	0	1	0	-1	0.732165900000837	1	1
110	1	3	4	"go_reward"	0	0	1	1	1	1	0	0.423294900014298	NA	1
110	1	4	3	"nogo_punish"	0	0	-1	0	0	1	-1	NA	0	1
110	1	5	2	"go_punish"	0	-1	0	1	1	1	-1	0.375213799998164	0	1
110	1	6	2	"go_punish"	1	0	-1	1	1	1	0	0.721629300009226	NA	1
110	1	7	2	"go_punish"	1	0	-1	1	0	0	-1	NA	0	1
110	1	8	1	"nogo_reward"	1	0	1	0	1	0	0	0.41817250000895	NA	1
110	1	9	3	"nogo_punish"	1	-1	0	0	0	1	0	NA	NA	1
110	1	10	3	"nogo_punish"	0	0	-1	0	0	1	-1	NA	0	1
110	1	11	4	"go_reward"	1	1	0	1	0	0	0	NA	NA	1
110	1	12	1	"nogo_reward"	1	0	1	0	0	1	1	NA	NA	1
110	1	13	3	"nogo_punish"	1	-1	0	0	0	1	0	NA	NA	1
110	1	14	2	"go_punish"	1	0	-1	1	1	1	0	0.411306199996034	NA	1
110	1	15	3	"nogo_punish"	0	0	-1	0	0	1	-1	NA	0	1
110	1	16	2	"go_punish"	1	0	-1	1	0	0	-1	NA	1	1
110	1	17	2	"go_punish"	1	0	-1	1	1	1	0	0.45814380000229	NA	1
110	1	18	4	"go_reward"	1	1	0	1	1	1	1	0.818475700012641	NA	1
110	1	19	3	"nogo_punish"	0	0	-1	0	0	1	-1	NA	0	1
110	1	20	3	"nogo_punish"	1	-1	0	0	0	1	0	NA	NA	1
110	1	21	3	"nogo_punish"	1	-1	0	0	0	1	0	NA	NA	1
110	1	22	1	"nogo_reward"	1	0	1	0	0	1	1	NA	NA	1
110	1	23	4	"go_reward"	0	0	1	1	1	1	0	0.49311999999918	NA	1
110	1	24	1	"nogo_reward"	1	0	1	0	0	1	1	NA	NA	1
110	1	25	3	"nogo_punish"	1	-1	0	0	0	1	0	NA	NA	1
110	1	26	1	"nogo_reward"	0	1	0	0	0	1	0	NA	NA	1
110	1	27	4	"go_reward"	0	0	1	1	1	1	0	0.35901320000994	NA	1
110	1	28	2	"go_punish"	1	0	-1	1	1	1	0	0.368664000008721	NA	1
110	1	29	3	"nogo_punish"	0	0	-1	0	0	1	-1	NA	0	1
110	1	30	1	"nogo_reward"	1	0	1	0	0	1	1	NA	NA	1
110	1	31	2	"go_punish"	1	0	-1	1	1	1	0	0.398756900016451	NA	1
110	1	32	4	"go_reward"	0	0	1	1	1	1	0	0.322478199988836	NA	1
110	1	33	1	"nogo_reward"	1	0	1	0	0	1	1	NA	NA	1
110	1	34	4	"go_reward"	1	1	0	1	1	1	1	0.287363499985076	NA	1
110	1	35	1	"nogo_reward"	0	1	0	0	0	1	0	NA	NA	1
110	1	36	1	"nogo_reward"	1	0	1	0	0	1	1	NA	NA	1
110	1	37	4	"go_reward"	1	1	0	1	1	1	1	0.466086100001121	NA	1
110	1	38	1	"nogo_reward"	1	0	1	0	0	1	1	NA	NA	1
110	1	39	3	"nogo_punish"	1	-1	0	0	0	1	0	NA	NA	1
110	1	40	2	"go_punish"	0	-1	0	1	1	1	-1	0.358092399983434	0	1
110	1	41	1	"nogo_reward"	1	0	1	0	0	1	1	NA	NA	1
110	1	42	2	"go_punish"	1	0	-1	1	1	1	0	0.26930360001279	NA	1
110	1	43	4	"go_reward"	1	1	0	1	1	1	1	0.349389499984682	NA	1
110	1	44	3	"nogo_punish"	1	-1	0	0	0	1	0	NA	NA	1
110	1	45	4	"go_reward"	0	0	1	1	1	1	0	0.31048029998783	NA	1
110	1	46	4	"go_reward"	1	1	0	1	1	1	1	0.258572799997637	NA	1
110	1	47	4	"go_reward"	1	1	0	1	1	1	1	0.258404899999732	NA	1
110	1	48	1	"nogo_reward"	1	0	1	0	0	1	1	NA	NA	1
110	1	49	3	"nogo_punish"	1	-1	0	0	0	1	0	NA	NA	1
110	1	50	2	"go_punish"	0	-1	0	1	1	1	-1	0.253872699977364	0	1
110	1	51	2	"go_punish"	1	0	-1	1	1	1	0	0.327779500017641	NA	1
110	1	52	3	"nogo_punish"	0	0	-1	0	0	1	-1	NA	0	1
110	1	53	2	"go_punish"	1	0	-1	1	1	1	0	0.274663899996085	NA	1
110	1	54	1	"nogo_reward"	1	0	1	0	0	1	1	NA	NA	1
110	1	55	1	"nogo_reward"	1	0	1	0	0	1	1	NA	NA	1
110	1	56	4	"go_reward"	0	0	1	1	1	1	0	0.318890700000338	NA	1
110	1	57	2	"go_punish"	1	0	-1	1	1	1	0	0.4750755999994	NA	1
110	1	58	4	"go_reward"	1	1	0	1	1	1	1	0.294810399995185	NA	1
110	1	59	4	"go_reward"	1	1	0	1	1	1	1	0.303393999987748	NA	1
110	1	60	2	"go_punish"	0	-1	0	1	1	1	-1	0.33476690002135	0	1
110	2	61	2	"go_punish"	0	-1	0	1	1	1	-1	0.25986260001082	1	1
110	2	62	3	"nogo_punish"	0	0	-1	0	0	1	-1	NA	1	1
110	2	63	3	"nogo_punish"	1	-1	0	0	0	1	0	NA	NA	1
110	2	64	1	"nogo_reward"	1	0	1	0	0	1	1	NA	NA	1
110	2	65	1	"nogo_reward"	1	0	1	0	0	1	1	NA	NA	1
