subject	block	trial	cue	cond	is_common	outcome_go	outcome_nogo	key_correct	key_pressed	is_correct	outcome	rt	shocked	tdcs
28	1	1	3	nogo_reward	1	0	1	0	0	1	1			2
28	1	2	4	go_punish	1	0	-1	1	0	0	-1		1.0	2
28	1	3	4	go_punish	1	0	-1	1	1	1	0	0.3460927999112755		2
28	1	4	3	nogo_reward	0	1	0	0	0	1	0			2
28	1	5	1	nogo_punish	0	0	-1	0	0	1	-1		0.0	2
28	1	6	4	go_punish	0	-1	0	1	1	1	-1	0.3647083998657763	0.0	2
28	1	7	1	nogo_punish	1	-1	0	0	1	0	-1	0.6600638998206705	0.0	2
28	1	8	2	go_reward	1	1	0	1	0	0	0			2
28	1	9	3	nogo_reward	0	1	0	0	0	1	0			2
28	1	10	4	go_punish	1	0	-1	1	1	1	0	0.3739575000945479		2
28	1	11	4	go_punish	1	0	-1	1	0	0	-1		0.0	2
28	1	12	2	go_reward	1	1	0	1	0	0	0			2
28	1	13	1	nogo_punish	1	-1	0	0	1	0	-1	0.2441606000065803	1.0	2
28	1	14	2	go_reward	1	1	0	1	0	0	0			2
28	1	15	3	nogo_reward	0	1	0	0	0	1	0			2
28	1	16	4	go_punish	1	0	-1	1	1	1	0	0.4129860999528319		2
28	1	17	2	go_reward	1	1	0	1	1	1	1	0.5004018999170512		2
28	1	18	4	go_punish	1	0	-1	1	1	1	0	0.2757029000204056		2
28	1	19	2	go_reward	0	0	1	1	1	1	0	0.7773274998180568		2
28	1	20	2	go_reward	1	1	0	1	1	1	1	0.6170455000828952		2
28	1	21	4	go_punish	1	0	-1	1	1	1	0	0.7801763999741524		2
28	1	22	1	nogo_punish	0	0	-1	0	0	1	-1		1.0	2
28	1	23	2	go_reward	1	1	0	1	1	1	1	0.2495771001558751		2
28	1	24	1	nogo_punish	0	0	-1	0	1	0	0	0.4852651001419872		2
28	1	25	3	nogo_reward	1	0	1	0	0	1	1			2
28	1	26	2	go_reward	1	1	0	1	1	1	1	0.123797999927774		2
28	1	27	1	nogo_punish	1	-1	0	0	1	0	-1	0.1237899998668581	1.0	2
28	1	28	1	nogo_punish	0	0	-1	0	1	0	0	0.5135023000184447		2
28	1	29	1	nogo_punish	0	0	-1	0	1	0	0	0.2848156997933984		2
28	1	30	1	nogo_punish	1	-1	0	0	1	0	-1	0.3124080998823047	0.0	2
28	1	31	2	go_reward	0	0	1	1	1	1	0	0.5721884998492897		2
28	1	32	2	go_reward	1	1	0	1	1	1	1	0.1423776999581605		2
28	1	33	1	nogo_punish	0	0	-1	0	1	0	0	0.8129926000256091		2
28	1	34	4	go_punish	0	-1	0	1	1	1	-1	0.3598031001165509	0.0	2
28	1	35	3	nogo_reward	1	0	1	0	0	1	1			2
28	1	36	3	nogo_reward	0	1	0	0	0	1	0			2
28	1	37	3	nogo_reward	1	0	1	0	0	1	1			2
28	1	38	2	go_reward	1	1	0	1	1	1	1	0.2403547000139952		2
28	1	39	1	nogo_punish	1	-1	0	0	1	0	-1	0.183564499951899	1.0	2
28	1	40	4	go_punish	0	-1	0	1	1	1	-1	0.3556665000505745	1.0	2
28	1	41	3	nogo_reward	0	1	0	0	0	1	0			2
28	1	42	1	nogo_punish	1	-1	0	0	0	1	0			2
28	1	43	3	nogo_reward	1	0	1	0	0	1	1			2
28	1	44	2	go_reward	1	1	0	1	1	1	1	0.4017121999058873		2
28	1	45	3	nogo_reward	1	0	1	0	0	1	1			2
28	1	46	2	go_reward	1	1	0	1	1	1	1	0.0685707000084221		2
28	1	47	3	nogo_reward	1	0	1	0	0	1	1			2
28	1	48	2	go_reward	0	0	1	1	1	1	0	0.0941854999400675		2
28	1	49	4	go_punish	1	0	-1	1	1	1	0	0.6524424999952316		2
28	1	50	2	go_reward	1	1	0	1	1	1	1	0.067770899971947		2
28	1	51	4	go_punish	1	0	-1	1	1	1	0	0.2155099001247436		2
28	1	52	4	go_punish	1	0	-1	1	1	1	0	0.1084131000097841		2
28	1	53	3	nogo_reward	1	0	1	0	0	1	1			2
28	1	54	3	nogo_reward	1	0	1	0	0	1	1			2
28	1	55	1	nogo_punish	0	0	-1	0	0	1	-1		1.0	2
28	1	56	1	nogo_punish	1	-1	0	0	1	0	-1	0.4326263000257313	0.0	2
28	1	57	1	nogo_punish	1	-1	0	0	0	1	0			2
28	1	58	4	go_punish	1	0	-1	1	1	1	0	0.2443177001550793		2
28	1	59	4	go_punish	1	0	-1	1	1	1	0	0.0579975000582635		2
28	1	60	3	nogo_reward	1	0	1	0	0	1	1			2
28	2	61	3	nogo_reward	0	1	0	0	0	1	0			2
28	2	62	2	go_reward	1	1	0	1	0	0	0			2
28	2	63	3	nogo_reward	1	0	1	0	0	1	1			2
28	2	64	1	nogo_punish	1	-1	0	0	0	1	0			2
28	2	65	4	go_punish	0	-1	0	1	0	0	0			2
28	2	66	2	go_reward	1	1	0	1	0	0	0			2
28	2	67	2	go_reward	1	1	0	1	0	0	0			2
28	2	68	1	nogo_punish	1	-1	0	0	0	1	0			2
28	2	69	2	go_reward	1	1	0	1	0	0	0			2
28	2	70	2	go_reward	1	1	0	1	0	0	0			2
28	2	71	4	go_punish	0	-1	0	1	0	0	0			2
28	2	72	4	go_punish	0	-1	0	1	0	0	0			2
28	2	73	2	go_reward	1	1	0	1	0	0	0			2
28	2	74	3	nogo_reward	0	1	0	0	0	1	0			2
28	2	75	1	nogo_punish	1	-1	0	0	0	1	0			2
28	2	76	2	go_reward	0	0	1	1	0	0	1			2
28	2	77	1	nogo_punish	1	-1	0	0	0	1	0			2
28	2	78	4	go_punish	0	-1	0	1	0	0	0			2
28	2	79	1	nogo_punish	0	0	-1	0	0	1	-1		1.0	2
28	2	80	3	nogo_reward	0	1	0	0	0	1	0			2
28	2	81	3	nogo_reward	1	0	1	0	0	1	1			2
28	2	82	2	go_reward	1	1	0	1	0	0	0			2
28	2	83	3	nogo_reward	1	0	1	0	0	1	1			2
28	2	84	4	go_punish	1	0	-1	1	0	0	-1		0.0	2
28	2	85	4	go_punish	1	0	-1	1	0	0	-1		0.0	2
28	2	86	4	go_punish	1	0	-1	1	0	0	-1		1.0	2
28	2	87	2	go_reward	1	1	0	1	0	0	0			2
28	2	88	1	nogo_punish	1	-1	0	0	0	1	0			2
28	2	89	4	go_punish	1	0	-1	1	0	0	-1		0.0	2
28	2	90	3	nogo_reward	0	1	0	0	0	1	0			2
28	2	91	1	nogo_punish	1	-1	0	0	0	1	0			2
28	2	92	2	go_reward	1	1	0	1	0	0	0			2
28	2	93	1	nogo_punish	1	-1	0	0	0	1	0			2
28	2	94	4	go_punish	1	0	-1	1	1	1	0	0.3271631000097841		2
28	2	95	3	nogo_reward	0	1	0	0	0	1	0			2
28	2	96	1	nogo_punish	1	-1	0	0	0	1	0			2
28	2	97	3	nogo_reward	1	0	1	0	0	1	1			2
28	2	98	2	go_reward	1	1	0	1	0	0	0			2
28	2	99	3	nogo_reward	1	0	1	0	0	1	1			2
28	2	100	3	nogo_reward	1	0	1	0	0	1	1			2
28	2	101	3	nogo_reward	1	0	1	0	0	1	1			2
28	2	102	4	go_punish	1	0	-1	1	1	1	0	0.3576398999430239		2
28	2	103	3	nogo_reward	1	0	1	0	0	1	1			2
28	2	104	4	go_punish	1	0	-1	1	0	0	-1		1.0	2
28	2	105	4	go_punish	0	-1	0	1	1	1	-1	0.129153500078246	0.0	2
28	2	106	1	nogo_punish	0	0	-1	0	0	1	-1		0.0	2
28	2	107	2	go_reward	1	1	0	1	0	0	0			2
28	2	108	2	go_reward	0	0	1	1	0	0	1			2
28	2	109	3	nogo_reward	1	0	1	0	0	1	1			2
28	2	110	4	go_punish	0	-1	0	1	1	1	-1	0.1307718998286873	0.0	2
28	2	111	3	nogo_reward	1	0	1	0	0	1	1			2
28	2	112	1	nogo_punish	0	0	-1	0	0	1	-1		1.0	2
28	2	113	1	nogo_punish	1	-1	0	0	0	1	0			2
28	2	114	2	go_reward	1	1	0	1	0	0	0			2
28	2	115	2	go_reward	0	0	1	1	0	0	1			2
28	2	116	1	nogo_punish	1	-1	0	0	0	1	0			2
28	2	117	4	go_punish	1	0	-1	1	1	1	0	0.0774338999763131		2
28	2	118	1	nogo_punish	1	-1	0	0	0	1	0			2
28	2	119	1	nogo_punish	1	-1	0	0	0	1	0			2
28	2	120	4	go_punish	0	-1	0	1	1	1	-1	0.1523277000524103	1.0	2
28	3	121	4	go_punish	0	-1	0	1	0	0	0			2
28	3	122	3	nogo_reward	1	0	1	0	0	1	1			2
28	3	123	4	go_punish	1	0	-1	1	0	0	-1		1.0	2
28	3	124	1	nogo_punish	1	-1	0	0	0	1	0			2
28	3	125	2	go_reward	0	0	1	1	0	0	1			2
28	3	126	2	go_reward	1	1	0	1	0	0	0			2
28	3	127	3	nogo_reward	1	0	1	0	0	1	1			2
28	3	128	4	go_punish	0	-1	0	1	1	1	-1	0.3632159000262618	0.0	2
28	3	129	4	go_punish	1	0	-1	1	1	1	0	0.3749307000543922		2
28	3	130	3	nogo_reward	1	0	1	0	0	1	1			2
28	3	131	4	go_punish	1	0	-1	1	1	1	0	0.2650456000119448		2
28	3	132	1	nogo_punish	1	-1	0	0	0	1	0			2
28	3	133	3	nogo_reward	1	0	1	0	0	1	1			2
28	3	134	2	go_reward	1	1	0	1	0	0	0			2
28	3	135	2	go_reward	1	1	0	1	0	0	0			2
28	3	136	1	nogo_punish	1	-1	0	0	0	1	0			2
28	3	137	2	go_reward	1	1	0	1	0	0	0			2
28	3	138	3	nogo_reward	1	0	1	0	0	1	1			2
28	3	139	3	nogo_reward	0	1	0	0	0	1	0			2
28	3	140	2	go_reward	0	0	1	1	0	0	1			2
28	3	141	1	nogo_punish	0	0	-1	0	0	1	-1		0.0	2
28	3	142	3	nogo_reward	0	1	0	0	0	1	0			2
28	3	143	3	nogo_reward	0	1	0	0	0	1	0			2
28	3	144	1	nogo_punish	0	0	-1	0	0	1	-1		0.0	2
28	3	145	3	nogo_reward	1	0	1	0	0	1	1			2
28	3	146	1	nogo_punish	1	-1	0	0	0	1	0			2
28	3	147	3	nogo_reward	1	0	1	0	0	1	1			2
28	3	148	2	go_reward	0	0	1	1	0	0	1			2
28	3	149	3	nogo_reward	0	1	0	0	0	1	0			2
28	3	150	1	nogo_punish	0	0	-1	0	0	1	-1		0.0	2
28	3	151	2	go_reward	1	1	0	1	0	0	0			2
28	3	152	2	go_reward	1	1	0	1	0	0	0			2
28	3	153	3	nogo_reward	1	0	1	0	0	1	1			2
28	3	154	1	nogo_punish	1	-1	0	0	0	1	0			2
28	3	155	4	go_punish	1	0	-1	1	0	0	-1		0.0	2
28	3	156	3	nogo_reward	1	0	1	0	0	1	1			2
28	3	157	3	nogo_reward	0	1	0	0	0	1	0			2
28	3	158	4	go_punish	0	-1	0	1	1	1	-1	0.1144161000847816	0.0	2
28	3	159	2	go_reward	1	1	0	1	0	0	0			2
28	3	160	1	nogo_punish	0	0	-1	0	0	1	-1		1.0	2
28	3	161	3	nogo_reward	1	0	1	0	0	1	1			2
28	3	162	4	go_punish	1	0	-1	1	1	1	0	0.1862723999656736		2
28	3	163	2	go_reward	0	0	1	1	0	0	1			2
28	3	164	4	go_punish	1	0	-1	1	1	1	0	0.2232922001276164		2
28	3	165	2	go_reward	0	0	1	1	0	0	1			2
28	3	166	4	go_punish	1	0	-1	1	1	1	0	0.1657673001755029		2
28	3	167	4	go_punish	1	0	-1	1	1	1	0	0.0933650999795645		2
28	3	168	2	go_reward	1	1	0	1	0	0	0			2
28	3	169	1	nogo_punish	1	-1	0	0	0	1	0			2
28	3	170	1	nogo_punish	1	-1	0	0	0	1	0			2
28	3	171	4	go_punish	1	0	-1	1	1	1	0	0.1226656001526862		2
28	3	172	4	go_punish	1	0	-1	1	1	1	0	0.0933274000417441		2
28	3	173	1	nogo_punish	1	-1	0	0	0	1	0			2
28	3	174	4	go_punish	1	0	-1	1	1	1	0	0.1255939998663962		2
28	3	175	1	nogo_punish	1	-1	0	0	0	1	0			2
28	3	176	2	go_reward	1	1	0	1	0	0	0			2
28	3	177	4	go_punish	1	0	-1	1	1	1	0	0.1640531001612544		2
28	3	178	1	nogo_punish	0	0	-1	0	0	1	-1		1.0	2
28	3	179	1	nogo_punish	1	-1	0	0	0	1	0			2
28	3	180	2	go_reward	1	1	0	1	0	0	0			2
18	1	1	1	nogo_reward	0	1	0	0	1	0	1	0.4320406999904662		2
18	1	2	1	nogo_reward	1	0	1	0	1	0	0	0.3407692997716367		2
18	1	3	4	go_reward	0	0	1	1	1	1	0	0.3240555000957101		2
18	1	4	4	go_reward	1	1	0	1	1	1	1	0.3082366001326591		2
18	1	5	1	nogo_reward	1	0	1	0	0	1	1			2
18	1	6	2	go_punish	1	0	-1	1	1	1	0	0.2882161999586969		2
18	1	7	1	nogo_reward	1	0	1	0	0	1	1			2
18	1	8	4	go_reward	0	0	1	1	1	1	0	0.414623900083825		2
18	1	9	3	nogo_punish	1	-1	0	0	0	1	0			2
18	1	10	2	go_punish	0	-1	0	1	1	1	-1	0.2994822000619024	1.0	2
18	1	11	4	go_reward	1	1	0	1	1	1	1	0.3377488998230547		2
18	1	12	1	nogo_reward	1	0	1	0	0	1	1			2
18	1	13	3	nogo_punish	0	0	-1	0	0	1	-1		0.0	2
18	1	14	2	go_punish	1	0	-1	1	1	1	0	0.3913769999053329		2
18	1	15	1	nogo_reward	1	0	1	0	0	1	1			2
18	1	16	2	go_punish	0	-1	0	1	0	0	0			2
18	1	17	1	nogo_reward	1	0	1	0	0	1	1			2
18	1	18	4	go_reward	1	1	0	1	1	1	1	0.3371800000313669		2
18	1	19	4	go_reward	1	1	0	1	1	1	1	0.5129744000732899		2
18	1	20	4	go_reward	0	0	1	1	1	1	0	0.3449335999321192		2
18	1	21	2	go_punish	0	-1	0	1	0	0	0			2
18	1	22	3	nogo_punish	1	-1	0	0	1	0	-1	0.4450785999651998	0.0	2
18	1	23	3	nogo_punish	1	-1	0	0	1	0	-1	0.6495324999559671	1.0	2
18	1	24	1	nogo_reward	1	0	1	0	0	1	1			2
18	1	25	3	nogo_punish	1	-1	0	0	1	0	-1	0.6611234999727458	0.0	2
18	1	26	4	go_reward	0	0	1	1	1	1	0	0.5281129998620601		2
18	1	27	2	go_punish	1	0	-1	1	0	0	-1		1.0	2
18	1	28	4	go_reward	0	0	1	1	1	1	0	0.3247489999048412		2
18	1	29	1	nogo_reward	0	1	0	0	0	1	0			2
18	1	30	2	go_punish	1	0	-1	1	1	1	0	0.4246704000979662		2
18	1	31	3	nogo_punish	1	-1	0	0	0	1	0			2
18	1	32	3	nogo_punish	0	0	-1	0	0	1	-1		0.0	2
18	1	33	4	go_reward	1	1	0	1	1	1	1	0.3769280998967588		2
18	1	34	3	nogo_punish	0	0	-1	0	1	0	0	0.3516929000616073		2
18	1	35	2	go_punish	1	0	-1	1	0	0	-1		1.0	2
18	1	36	1	nogo_reward	1	0	1	0	0	1	1			2
18	1	37	3	nogo_punish	1	-1	0	0	1	0	-1	0.2850562001112848	1.0	2
18	1	38	2	go_punish	1	0	-1	1	1	1	0	0.5542741999961436		2
18	1	39	4	go_reward	0	0	1	1	1	1	0	0.3793284001294524		2
18	1	40	1	nogo_reward	1	0	1	0	0	1	1			2
18	1	41	2	go_punish	1	0	-1	1	1	1	0	0.3141501999925822		2
18	1	42	2	go_punish	1	0	-1	1	1	1	0	0.3535800999961793		2
18	1	43	2	go_punish	0	-1	0	1	1	1	-1	0.309168400010094	0.0	2
18	1	44	4	go_reward	1	1	0	1	1	1	1	0.2806548001244664		2
18	1	45	1	nogo_reward	0	1	0	0	0	1	0			2
18	1	46	2	go_punish	0	-1	0	1	1	1	-1	0.6859558001160622	0.0	2
18	1	47	3	nogo_punish	1	-1	0	0	1	0	-1	0.4066711000632495	0.0	2
18	1	48	1	nogo_reward	1	0	1	0	0	1	1			2
18	1	49	4	go_reward	1	1	0	1	1	1	1	0.2622137998696417		2
18	1	50	4	go_reward	1	1	0	1	1	1	1	0.3293320001102984		2
18	1	51	2	go_punish	1	0	-1	1	1	1	0	0.3992274999618529		2
18	1	52	3	nogo_punish	1	-1	0	0	0	1	0			2
18	1	53	2	go_punish	1	0	-1	1	1	1	0	0.3225871999748051		2
18	1	54	3	nogo_punish	1	-1	0	0	0	1	0			2
18	1	55	3	nogo_punish	1	-1	0	0	0	1	0			2
18	1	56	1	nogo_reward	1	0	1	0	0	1	1			2
18	1	57	3	nogo_punish	1	-1	0	0	0	1	0			2
18	1	58	4	go_reward	0	0	1	1	1	1	0	0.5080825998447835		2
18	1	59	1	nogo_reward	1	0	1	0	0	1	1			2
18	1	60	3	nogo_punish	1	-1	0	0	1	0	-1	0.499535100068897	0.0	2
18	2	61	3	nogo_punish	1	-1	0	0	1	0	-1	0.6404894001316279	1.0	2
18	2	62	1	nogo_reward	0	1	0	0	0	1	0			2
18	2	63	4	go_reward	0	0	1	1	1	1	0	0.2691461001522839		2
18	2	64	2	go_punish	1	0	-1	1	1	1	0	0.2995344998780638		2
18	2	65	1	nogo_reward	0	1	0	0	1	0	1	0.3533134001772851		2
18	2	66	2	go_punish	1	0	-1	1	1	1	0	0.3217987001407891		2
18	2	67	1	nogo_reward	1	0	1	0	1	0	0	0.3090536000672728		2
18	2	68	3	nogo_punish	0	0	-1	0	0	1	-1		0.0	2
18	2	69	1	nogo_reward	1	0	1	0	0	1	1			2
18	2	70	1	nogo_reward	1	0	1	0	0	1	1			2
18	2	71	2	go_punish	1	0	-1	1	1	1	0	0.3888302000705153		2
18	2	72	2	go_punish	1	0	-1	1	1	1	0	0.288763599935919		2
18	2	73	4	go_reward	0	0	1	1	0	0	1			2
18	2	74	1	nogo_reward	1	0	1	0	0	1	1			2
18	2	75	3	nogo_punish	1	-1	0	0	1	0	-1	0.9643802999053148	0.0	2
18	2	76	3	nogo_punish	1	-1	0	0	0	1	0			2
18	2	77	2	go_punish	1	0	-1	1	1	1	0	0.287846100050956		2
18	2	78	2	go_punish	1	0	-1	1	1	1	0	0.251313199987635		2
18	2	79	3	nogo_punish	1	-1	0	0	0	1	0			2
18	2	80	3	nogo_punish	1	-1	0	0	0	1	0			2
18	2	81	4	go_reward	1	1	0	1	1	1	1	0.3788624999579042		2
18	2	82	4	go_reward	0	0	1	1	1	1	0	0.2985813999548554		2
18	2	83	2	go_punish	1	0	-1	1	1	1	0	0.3327830999623984		2
18	2	84	3	nogo_punish	0	0	-1	0	0	1	-1		0.0	2
18	2	85	4	go_reward	1	1	0	1	1	1	1	0.2846739001106471		2
18	2	86	1	nogo_reward	1	0	1	0	1	0	0	0.5070825000293553		2
18	2	87	3	nogo_punish	0	0	-1	0	0	1	-1		1.0	2
18	2	88	2	go_punish	0	-1	0	1	1	1	-1	0.3270488998387009	0.0	2
18	2	89	4	go_reward	1	1	0	1	1	1	1	0.3010807000100613		2
18	2	90	1	nogo_reward	0	1	0	0	0	1	0			2
18	2	91	3	nogo_punish	1	-1	0	0	0	1	0			2
18	2	92	2	go_punish	1	0	-1	1	1	1	0	0.2544017999898642		2
18	2	93	2	go_punish	0	-1	0	1	1	1	-1	0.481844900175929	1.0	2
18	2	94	3	nogo_punish	1	-1	0	0	0	1	0			2
18	2	95	3	nogo_punish	0	0	-1	0	0	1	-1		0.0	2
18	2	96	4	go_reward	1	1	0	1	1	1	1	0.3119588000699878		2
18	2	97	4	go_reward	1	1	0	1	1	1	1	0.6076437998563051		2
18	2	98	4	go_reward	1	1	0	1	1	1	1	0.3208693999331444		2
18	2	99	1	nogo_reward	1	0	1	0	0	1	1			2
18	2	100	1	nogo_reward	0	1	0	0	1	0	1	0.4716723999008536		2
18	2	101	4	go_reward	1	1	0	1	1	1	1	0.3462588000111282		2
18	2	102	2	go_punish	0	-1	0	1	1	1	-1	0.3359695000108331	0.0	2
18	2	103	4	go_reward	1	1	0	1	1	1	1	0.421830200124532		2
18	2	104	1	nogo_reward	1	0	1	0	0	1	1			2
18	2	105	3	nogo_punish	1	-1	0	0	0	1	0			2
18	2	106	3	nogo_punish	1	-1	0	0	0	1	0			2
18	2	107	4	go_reward	1	1	0	1	1	1	1	0.3618964999914169		2
18	2	108	2	go_punish	1	0	-1	1	1	1	0	0.3043587000574917		2
18	2	109	3	nogo_punish	0	0	-1	0	0	1	-1		1.0	2
18	2	110	2	go_punish	0	-1	0	1	1	1	-1	0.6171778000425547	0.0	2
18	2	111	3	nogo_punish	1	-1	0	0	0	1	0			2
18	2	112	1	nogo_reward	1	0	1	0	0	1	1			2
18	2	113	1	nogo_reward	1	0	1	0	0	1	1			2
18	2	114	1	nogo_reward	1	0	1	0	0	1	1			2
18	2	115	4	go_reward	0	0	1	1	1	1	0	0.3654328999109566		2
18	2	116	2	go_punish	0	-1	0	1	1	1	-1	0.2890282000880688	0.0	2
18	2	117	1	nogo_reward	1	0	1	0	0	1	1			2
18	2	118	2	go_punish	1	0	-1	1	1	1	0	0.5500369998626411		2
18	2	119	4	go_reward	1	1	0	1	1	1	1	0.449124600039795		2
18	2	120	4	go_reward	1	1	0	1	1	1	1	0.2632647999562323		2
18	3	121	1	nogo_reward	1	0	1	0	0	1	1			2
18	3	122	2	go_punish	1	0	-1	1	1	1	0	0.3082940999884158		2
18	3	123	4	go_reward	0	0	1	1	1	1	0	0.3061154999304563		2
18	3	124	3	nogo_punish	1	-1	0	0	0	1	0			2
18	3	125	1	nogo_reward	1	0	1	0	0	1	1			2
18	3	126	3	nogo_punish	0	0	-1	0	0	1	-1		1.0	2
18	3	127	2	go_punish	1	0	-1	1	1	1	0	0.2894875998608768		2
18	3	128	4	go_reward	1	1	0	1	1	1	1	0.3189550000242889		2
18	3	129	1	nogo_reward	1	0	1	0	0	1	1			2
18	3	130	1	nogo_reward	0	1	0	0	0	1	0			2
18	3	131	3	nogo_punish	0	0	-1	0	0	1	-1		1.0	2
18	3	132	2	go_punish	1	0	-1	1	1	1	0	0.3223135999869555		2
18	3	133	3	nogo_punish	1	-1	0	0	1	0	-1	0.3336972000543028	0.0	2
18	3	134	1	nogo_reward	1	0	1	0	0	1	1			2
18	3	135	2	go_punish	0	-1	0	1	1	1	-1	0.3807345000095665	0.0	2
18	3	136	3	nogo_punish	0	0	-1	0	1	0	0	0.7795726000331342		2
18	3	137	1	nogo_reward	0	1	0	0	0	1	0			2
18	3	138	1	nogo_reward	0	1	0	0	0	1	0			2
18	3	139	1	nogo_reward	1	0	1	0	0	1	1			2
18	3	140	2	go_punish	0	-1	0	1	1	1	-1	0.295705100055784	0.0	2
18	3	141	4	go_reward	0	0	1	1	1	1	0	0.5291001999285072		2
18	3	142	1	nogo_reward	0	1	0	0	1	0	1	0.8554907001089305		2
18	3	143	2	go_punish	1	0	-1	1	0	0	-1		0.0	2
18	3	144	1	nogo_reward	1	0	1	0	0	1	1			2
18	3	145	3	nogo_punish	0	0	-1	0	1	0	0	0.3121296998579055		2
18	3	146	1	nogo_reward	0	1	0	0	0	1	0			2
18	3	147	4	go_reward	0	0	1	1	1	1	0	0.2902134000323713		2
18	3	148	4	go_reward	1	1	0	1	1	1	1	0.3245087999384849		2
18	3	149	2	go_punish	1	0	-1	1	1	1	0	0.2843285000417381		2
18	3	150	4	go_reward	1	1	0	1	1	1	1	0.3327426998876035		2
18	3	151	2	go_punish	1	0	-1	1	1	1	0	0.3543871999718249		2
18	3	152	1	nogo_reward	0	1	0	0	0	1	0			2
18	3	153	1	nogo_reward	1	0	1	0	0	1	1			2
18	3	154	3	nogo_punish	1	-1	0	0	0	1	0			2
18	3	155	3	nogo_punish	1	-1	0	0	0	1	0			2
18	3	156	3	nogo_punish	0	0	-1	0	0	1	-1		0.0	2
18	3	157	4	go_reward	1	1	0	1	1	1	1	0.3618568999227136		2
18	3	158	2	go_punish	0	-1	0	1	1	1	-1	0.3898160001263022	1.0	2
18	3	159	4	go_reward	1	1	0	1	1	1	1	0.2750750998966396		2
18	3	160	3	nogo_punish	1	-1	0	0	0	1	0			2
18	3	161	3	nogo_punish	1	-1	0	0	0	1	0			2
18	3	162	3	nogo_punish	1	-1	0	0	0	1	0			2
18	3	163	4	go_reward	1	1	0	1	1	1	1	0.3971829998772592		2
18	3	164	4	go_reward	1	1	0	1	1	1	1	0.3375154000241309		2
18	3	165	1	nogo_reward	1	0	1	0	0	1	1			2
18	3	166	4	go_reward	1	1	0	1	1	1	1	0.3272542001213878		2
18	3	167	3	nogo_punish	1	-1	0	0	0	1	0			2
18	3	168	2	go_punish	0	-1	0	1	1	1	-1	0.3894846001639962	0.0	2
18	3	169	2	go_punish	1	0	-1	1	1	1	0	0.4527270998805761		2
18	3	170	4	go_reward	1	1	0	1	1	1	1	0.4307901000138372		2
18	3	171	3	nogo_punish	1	-1	0	0	0	1	0			2
18	3	172	2	go_punish	1	0	-1	1	1	1	0	0.3175284001044929		2
18	3	173	4	go_reward	1	1	0	1	1	1	1	0.3450527999084443		2
18	3	174	1	nogo_reward	1	0	1	0	0	1	1			2
18	3	175	4	go_reward	1	1	0	1	1	1	1	0.3819395999889821		2
18	3	176	2	go_punish	1	0	-1	1	0	0	-1		0.0	2
18	3	177	3	nogo_punish	1	-1	0	0	0	1	0			2
18	3	178	4	go_reward	1	1	0	1	1	1	1	0.3629176998510957		2
18	3	179	2	go_punish	1	0	-1	1	1	1	0	0.3368126000277698		2
18	3	180	2	go_punish	1	0	-1	1	1	1	0	0.3711439999751746		2
33	1	1	2	nogo_reward	1	0	1	0	1	0	0	0.40744509967044		2
33	1	2	1	go_reward	1	1	0	1	0	0	0			2
33	1	3	1	go_reward	0	0	1	1	1	1	0	0.3666387996636331		2
33	1	4	3	go_punish	1	0	-1	1	1	1	0	0.340879499912262		2
33	1	5	4	nogo_punish	1	-1	0	0	0	1	0			2
33	1	6	1	go_reward	1	1	0	1	0	0	0			2
33	1	7	2	nogo_reward	1	0	1	0	1	0	0	0.4201918998733163		2
33	1	8	4	nogo_punish	1	-1	0	0	0	1	0			2
33	1	9	1	go_reward	0	0	1	1	1	1	0	0.3310027001425624		2
33	1	10	1	go_reward	1	1	0	1	1	1	1	0.3243758999742567		2
33	1	11	4	nogo_punish	1	-1	0	0	0	1	0			2
33	1	12	3	go_punish	1	0	-1	1	1	1	0	0.5597847998142242		2
33	1	13	1	go_reward	1	1	0	1	1	1	1	0.3327131001278758		2
33	1	14	2	nogo_reward	0	1	0	0	0	1	0			2
33	1	15	4	nogo_punish	0	0	-1	0	0	1	-1		1.0	2
33	1	16	3	go_punish	1	0	-1	1	1	1	0	0.4805054999887943		2
33	1	17	1	go_reward	1	1	0	1	1	1	1	0.3114519999362528		2
33	1	18	4	nogo_punish	0	0	-1	0	1	0	0	0.3847062001004815		2
33	1	19	3	go_punish	1	0	-1	1	1	1	0	0.4671156997792423		2
33	1	20	3	go_punish	1	0	-1	1	0	0	-1		1.0	2
33	1	21	2	nogo_reward	0	1	0	0	1	0	1	0.5521988999098539		2
33	1	22	4	nogo_punish	1	-1	0	0	1	0	-1	0.2152061997912824	1.0	2
33	1	23	2	nogo_reward	1	0	1	0	1	0	0	0.5304223001003265		2
33	1	24	3	go_punish	1	0	-1	1	1	1	0	0.4581156000494957		2
33	1	25	3	go_punish	1	0	-1	1	1	1	0	0.6326005998998879		2
33	1	26	1	go_reward	0	0	1	1	1	1	0	0.2952326997183263		2
33	1	27	2	nogo_reward	1	0	1	0	0	1	1			2
33	1	28	1	go_reward	1	1	0	1	1	1	1	0.344743900001049		2
33	1	29	4	nogo_punish	0	0	-1	0	0	1	-1		0.0	2
33	1	30	2	nogo_reward	0	1	0	0	0	1	0			2
33	1	31	3	go_punish	0	-1	0	1	1	1	-1	0.2604971001856029	1.0	2
33	1	32	3	go_punish	0	-1	0	1	1	1	-1	0.3198124999180436	0.0	2
33	1	33	1	go_reward	1	1	0	1	1	1	1	0.320327500347048		2
33	1	34	3	go_punish	1	0	-1	1	0	0	-1		1.0	2
33	1	35	4	nogo_punish	1	-1	0	0	0	1	0			2
33	1	36	1	go_reward	1	1	0	1	1	1	1	0.3096246998757124		2
33	1	37	4	nogo_punish	1	-1	0	0	0	1	0			2
33	1	38	1	go_reward	0	0	1	1	1	1	0	0.5143331000581384		2
33	1	39	2	nogo_reward	1	0	1	0	0	1	1			2
33	1	40	1	go_reward	1	1	0	1	1	1	1	0.542872800026089		2
33	1	41	2	nogo_reward	1	0	1	0	0	1	1			2
33	1	42	3	go_punish	1	0	-1	1	1	1	0	0.2572006997652352		2
33	1	43	2	nogo_reward	1	0	1	0	0	1	1			2
33	1	44	2	nogo_reward	0	1	0	0	0	1	0			2
33	1	45	4	nogo_punish	1	-1	0	0	0	1	0			2
33	1	46	3	go_punish	0	-1	0	1	1	1	-1	0.3140378999523818	1.0	2
33	1	47	4	nogo_punish	1	-1	0	0	0	1	0			2
33	1	48	1	go_reward	0	0	1	1	1	1	0	0.4440175001509488		2
33	1	49	4	nogo_punish	1	-1	0	0	0	1	0			2
33	1	50	2	nogo_reward	1	0	1	0	0	1	1			2
33	1	51	3	go_punish	1	0	-1	1	1	1	0	0.4628336001187563		2
33	1	52	4	nogo_punish	1	-1	0	0	0	1	0			2
33	1	53	3	go_punish	0	-1	0	1	1	1	-1	0.2646619998849928	0.0	2
33	1	54	4	nogo_punish	1	-1	0	0	0	1	0			2
33	1	55	2	nogo_reward	1	0	1	0	0	1	1			2
33	1	56	1	go_reward	1	1	0	1	1	1	1	0.7034180997870862		2
33	1	57	2	nogo_reward	0	1	0	0	0	1	0			2
33	1	58	2	nogo_reward	0	1	0	0	0	1	0			2
33	1	59	3	go_punish	1	0	-1	1	1	1	0	0.3048290000297129		2
33	1	60	4	nogo_punish	1	-1	0	0	0	1	0			2
33	2	61	1	go_reward	1	1	0	1	1	1	1	0.3496174002066254		2
33	2	62	3	go_punish	1	0	-1	1	1	1	0	0.2950087999925017		2
33	2	63	1	go_reward	1	1	0	1	1	1	1	0.2916132002137601		2
33	2	64	1	go_reward	0	0	1	1	1	1	0	0.4187785997055471		2
33	2	65	4	nogo_punish	1	-1	0	0	0	1	0			2
33	2	66	3	go_punish	1	0	-1	1	1	1	0	0.2591111999936402		2
33	2	67	3	go_punish	1	0	-1	1	1	1	0	0.309426000341773		2
33	2	68	4	nogo_punish	0	0	-1	0	0	1	-1		1.0	2
33	2	69	2	nogo_reward	1	0	1	0	0	1	1			2
33	2	70	1	go_reward	1	1	0	1	1	1	1	0.2004615003243088		2
33	2	71	4	nogo_punish	1	-1	0	0	0	1	0			2
33	2	72	1	go_reward	1	1	0	1	1	1	1	0.3394842999987304		2
33	2	73	1	go_reward	0	0	1	1	1	1	0	0.7102554999291897		2
33	2	74	3	go_punish	1	0	-1	1	1	1	0	0.3407096997834742		2
33	2	75	2	nogo_reward	0	1	0	0	0	1	0			2
33	2	76	4	nogo_punish	1	-1	0	0	0	1	0			2
33	2	77	4	nogo_punish	0	0	-1	0	0	1	-1		1.0	2
33	2	78	2	nogo_reward	0	1	0	0	0	1	0			2
33	2	79	4	nogo_punish	1	-1	0	0	0	1	0			2
33	2	80	1	go_reward	0	0	1	1	1	1	0	0.3099031001329422		2
33	2	81	2	nogo_reward	0	1	0	0	0	1	0			2
33	2	82	1	go_reward	0	0	1	1	1	1	0	0.4913893998600543		2
33	2	83	2	nogo_reward	1	0	1	0	0	1	1			2
33	2	84	4	nogo_punish	0	0	-1	0	0	1	-1		0.0	2
33	2	85	4	nogo_punish	0	0	-1	0	0	1	-1		1.0	2
33	2	86	3	go_punish	0	-1	0	1	1	1	-1	0.2889045998454094	0.0	2
33	2	87	3	go_punish	1	0	-1	1	1	1	0	0.4344111001119017		2
33	2	88	1	go_reward	1	1	0	1	1	1	1	0.3031836003065109		2
33	2	89	3	go_punish	1	0	-1	1	1	1	0	0.3442538999952376		2
33	2	90	3	go_punish	1	0	-1	1	1	1	0	0.2622696999460459		2
33	2	91	3	go_punish	1	0	-1	1	1	1	0	0.3042063000611961		2
33	2	92	3	go_punish	1	0	-1	1	1	1	0	0.3174684001132846		2
33	2	93	2	nogo_reward	1	0	1	0	0	1	1			2
33	2	94	3	go_punish	1	0	-1	1	1	1	0	0.3327787998132408		2
33	2	95	2	nogo_reward	1	0	1	0	0	1	1			2
33	2	96	4	nogo_punish	1	-1	0	0	0	1	0			2
33	2	97	3	go_punish	1	0	-1	1	1	1	0	0.272958000190556		2
33	2	98	3	go_punish	1	0	-1	1	1	1	0	0.3031494002789259		2
33	2	99	2	nogo_reward	1	0	1	0	0	1	1			2
33	2	100	2	nogo_reward	1	0	1	0	0	1	1			2
33	2	101	1	go_reward	1	1	0	1	1	1	1	0.3129917001351714		2
33	2	102	1	go_reward	1	1	0	1	1	1	1	0.6293604001402855		2
33	2	103	2	nogo_reward	1	0	1	0	0	1	1			2
33	2	104	1	go_reward	0	0	1	1	1	1	0	0.3723039999604225		2
33	2	105	1	go_reward	1	1	0	1	1	1	1	0.2873228997923434		2
33	2	106	2	nogo_reward	1	0	1	0	0	1	1			2
33	2	107	4	nogo_punish	1	-1	0	0	0	1	0			2
33	2	108	4	nogo_punish	0	0	-1	0	0	1	-1		0.0	2
33	2	109	1	go_reward	0	0	1	1	1	1	0	0.3026546002365649		2
33	2	110	3	go_punish	0	-1	0	1	1	1	-1	0.3949692999012768	1.0	2
33	2	111	4	nogo_punish	1	-1	0	0	0	1	0			2
33	2	112	2	nogo_reward	1	0	1	0	0	1	1			2
33	2	113	4	nogo_punish	0	0	-1	0	0	1	-1		1.0	2
33	2	114	1	go_reward	1	1	0	1	1	1	1	0.3485412001609802		2
33	2	115	3	go_punish	1	0	-1	1	1	1	0	0.2753421002998948		2
33	2	116	4	nogo_punish	0	0	-1	0	0	1	-1		0.0	2
33	2	117	2	nogo_reward	1	0	1	0	0	1	1			2
33	2	118	4	nogo_punish	1	-1	0	0	0	1	0			2
33	2	119	2	nogo_reward	1	0	1	0	0	1	1			2
33	2	120	2	nogo_reward	1	0	1	0	0	1	1			2
33	3	121	2	nogo_reward	1	0	1	0	0	1	1			2
33	3	122	3	go_punish	1	0	-1	1	1	1	0	0.3199944999068975		2
33	3	123	1	go_reward	1	1	0	1	1	1	1	0.3592188996262848		2
33	3	124	1	go_reward	1	1	0	1	1	1	1	0.3460989999584853		2
33	3	125	3	go_punish	1	0	-1	1	1	1	0	0.2522598998621106		2
33	3	126	4	nogo_punish	1	-1	0	0	0	1	0			2
33	3	127	1	go_reward	1	1	0	1	1	1	1	0.2742059999145567		2
33	3	128	4	nogo_punish	1	-1	0	0	0	1	0			2
33	3	129	3	go_punish	0	-1	0	1	1	1	-1	0.3410712000913918	1.0	2
33	3	130	1	go_reward	0	0	1	1	1	1	0	0.3333476996049285		2
33	3	131	2	nogo_reward	1	0	1	0	0	1	1			2
33	3	132	2	nogo_reward	0	1	0	0	0	1	0			2
33	3	133	4	nogo_punish	1	-1	0	0	0	1	0			2
33	3	134	1	go_reward	0	0	1	1	1	1	0	0.6052083000540733		2
33	3	135	2	nogo_reward	1	0	1	0	0	1	1			2
33	3	136	2	nogo_reward	1	0	1	0	0	1	1			2
33	3	137	3	go_punish	1	0	-1	1	1	1	0	0.3809430999681353		2
33	3	138	2	nogo_reward	1	0	1	0	0	1	1			2
33	3	139	4	nogo_punish	1	-1	0	0	0	1	0			2
33	3	140	4	nogo_punish	0	0	-1	0	0	1	-1		0.0	2
33	3	141	2	nogo_reward	1	0	1	0	0	1	1			2
33	3	142	1	go_reward	0	0	1	1	1	1	0	0.4754912997595966		2
33	3	143	3	go_punish	0	-1	0	1	1	1	-1	0.5864342004060745	0.0	2
33	3	144	3	go_punish	1	0	-1	1	1	1	0	0.3054146999493241		2
33	3	145	4	nogo_punish	1	-1	0	0	0	1	0			2
33	3	146	2	nogo_reward	1	0	1	0	0	1	1			2
33	3	147	1	go_reward	1	1	0	1	1	1	1	0.3731616996228695		2
33	3	148	4	nogo_punish	0	0	-1	0	0	1	-1		0.0	2
33	3	149	4	nogo_punish	0	0	-1	0	0	1	-1		1.0	2
33	3	150	1	go_reward	1	1	0	1	1	1	1	0.290903499815613		2
33	3	151	2	nogo_reward	1	0	1	0	0	1	1			2
33	3	152	1	go_reward	0	0	1	1	1	1	0	0.7581457998603582		2
33	3	153	4	nogo_punish	1	-1	0	0	0	1	0			2
33	3	154	1	go_reward	1	1	0	1	1	1	1	0.4156756000593305		2
33	3	155	2	nogo_reward	1	0	1	0	0	1	1			2
33	3	156	4	nogo_punish	1	-1	0	0	0	1	0			2
33	3	157	2	nogo_reward	1	0	1	0	0	1	1			2
33	3	158	3	go_punish	0	-1	0	1	1	1	-1	0.2990514002740383	0.0	2
33	3	159	4	nogo_punish	1	-1	0	0	0	1	0			2
33	3	160	3	go_punish	1	0	-1	1	1	1	0	0.2801783997565508		2
33	3	161	4	nogo_punish	1	-1	0	0	0	1	0			2
33	3	162	1	go_reward	0	0	1	1	1	1	0	0.293709599878639		2
33	3	163	4	nogo_punish	1	-1	0	0	0	1	0			2
33	3	164	1	go_reward	1	1	0	1	1	1	1	0.5910712000913918		2
33	3	165	4	nogo_punish	1	-1	0	0	0	1	0			2
33	3	166	3	go_punish	0	-1	0	1	1	1	-1	0.3134457999840379	0.0	2
33	3	167	1	go_reward	1	1	0	1	1	1	1	0.5340085998177528		2
33	3	168	2	nogo_reward	0	1	0	0	0	1	0			2
33	3	169	2	nogo_reward	1	0	1	0	0	1	1			2
33	3	170	3	go_punish	1	0	-1	1	1	1	0	0.9525460000149906		2
33	3	171	2	nogo_reward	0	1	0	0	0	1	0			2
33	3	172	1	go_reward	1	1	0	1	1	1	1	0.3296884000301361		2
33	3	173	3	go_punish	1	0	-1	1	1	1	0	0.2802276001311838		2
33	3	174	3	go_punish	1	0	-1	1	1	1	0	0.2828899002633989		2
33	3	175	3	go_punish	0	-1	0	1	1	1	-1	0.2571793999522924	0.0	2
33	3	176	2	nogo_reward	1	0	1	0	0	1	1			2
33	3	177	1	go_reward	0	0	1	1	1	1	0	0.6939558000303805		2
33	3	178	3	go_punish	0	-1	0	1	1	1	-1	0.2969551999121904	1.0	2
33	3	179	3	go_punish	1	0	-1	1	1	1	0	0.3814131999388337		2
33	3	180	4	nogo_punish	1	-1	0	0	0	1	0			2
61	1	1	3	go_punish	1	0	-1	1	1	1	0	0.4482706000271719		2
61	1	2	1	go_reward	0	0	1	1	1	1	0	0.7809048000199255		2
61	1	3	4	nogo_punish	0	0	-1	0	1	0	0	0.2954012000118382		2
61	1	4	3	go_punish	1	0	-1	1	1	1	0	0.7168334000161849		2
61	1	5	2	nogo_reward	0	1	0	0	1	0	1	0.3419902000168804		2
61	1	6	4	nogo_punish	1	-1	0	0	0	1	0			2
61	1	7	2	nogo_reward	0	1	0	0	1	0	1	0.3638251000083983		2
61	1	8	2	nogo_reward	1	0	1	0	1	0	0	0.3807473999913782		2
61	1	9	4	nogo_punish	1	-1	0	0	0	1	0			2
61	1	10	2	nogo_reward	1	0	1	0	1	0	0	0.3084524000005331		2
61	1	11	2	nogo_reward	1	0	1	0	1	0	0	0.515688899991801		2
61	1	12	3	go_punish	1	0	-1	1	0	0	-1		1.0	2
61	1	13	2	nogo_reward	0	1	0	0	1	0	1	0.4333000000042375		2
61	1	14	1	go_reward	1	1	0	1	0	0	0			2
61	1	15	3	go_punish	0	-1	0	1	1	1	-1	0.3113888000079896	0.0	2
61	1	16	1	go_reward	1	1	0	1	0	0	0			2
61	1	17	1	go_reward	1	1	0	1	0	0	0			2
61	1	18	1	go_reward	1	1	0	1	1	1	1	0.3384878999786451		2
61	1	19	4	nogo_punish	1	-1	0	0	0	1	0			2
61	1	20	4	nogo_punish	1	-1	0	0	1	0	-1	0.3670758999942336	0.0	2
61	1	21	4	nogo_punish	1	-1	0	0	0	1	0			2
61	1	22	3	go_punish	1	0	-1	1	0	0	-1		0.0	2
61	1	23	2	nogo_reward	1	0	1	0	1	0	0	0.5350700000126379		2
61	1	24	2	nogo_reward	1	0	1	0	1	0	0	0.3479623000021093		2
61	1	25	3	go_punish	1	0	-1	1	1	1	0	0.3360017999948468		2
61	1	26	1	go_reward	1	1	0	1	0	0	0			2
61	1	27	3	go_punish	1	0	-1	1	1	1	0	0.4705156999989413		2
61	1	28	1	go_reward	1	1	0	1	0	0	0			2
61	1	29	1	go_reward	1	1	0	1	0	0	0			2
61	1	30	4	nogo_punish	1	-1	0	0	0	1	0			2
61	1	31	1	go_reward	1	1	0	1	0	0	0			2
61	1	32	4	nogo_punish	0	0	-1	0	0	1	-1		1.0	2
61	1	33	1	go_reward	1	1	0	1	0	0	0			2
61	1	34	3	go_punish	1	0	-1	1	1	1	0	0.3864535000175237		2
61	1	35	3	go_punish	1	0	-1	1	1	1	0	0.3825503999833017		2
61	1	36	2	nogo_reward	0	1	0	0	1	0	1	0.386567700013984		2
61	1	37	1	go_reward	1	1	0	1	0	0	0			2
61	1	38	2	nogo_reward	0	1	0	0	1	0	1	0.4000853000034113		2
61	1	39	4	nogo_punish	1	-1	0	0	0	1	0			2
61	1	40	3	go_punish	0	-1	0	1	1	1	-1	0.4960855999961496	0.0	2
61	1	41	2	nogo_reward	0	1	0	0	1	0	1	0.5223296000040136		2
61	1	42	4	nogo_punish	1	-1	0	0	1	0	-1	0.5570178999914788	0.0	2
61	1	43	2	nogo_reward	1	0	1	0	1	0	0	0.6236287000065204		2
61	1	44	1	go_reward	1	1	0	1	0	0	0			2
61	1	45	2	nogo_reward	0	1	0	0	1	0	1	0.5780648000072688		2
61	1	46	2	nogo_reward	0	1	0	0	1	0	1	0.4014487999957055		2
61	1	47	4	nogo_punish	0	0	-1	0	0	1	-1		0.0	2
61	1	48	4	nogo_punish	0	0	-1	0	0	1	-1		1.0	2
61	1	49	3	go_punish	1	0	-1	1	0	0	-1		0.0	2
61	1	50	3	go_punish	1	0	-1	1	1	1	0	0.3255329999956302		2
61	1	51	3	go_punish	0	-1	0	1	1	1	-1	0.3566460999718401	1.0	2
61	1	52	1	go_reward	1	1	0	1	0	0	0			2
61	1	53	1	go_reward	1	1	0	1	0	0	0			2
61	1	54	4	nogo_punish	1	-1	0	0	1	0	-1	0.3087362000078428	1.0	2
61	1	55	4	nogo_punish	1	-1	0	0	1	0	-1	0.5088696999882814	0.0	2
61	1	56	3	go_punish	0	-1	0	1	1	1	-1	0.3852199999964796	0.0	2
61	1	57	4	nogo_punish	0	0	-1	0	0	1	-1		0.0	2
61	1	58	3	go_punish	1	0	-1	1	1	1	0	0.4478096000093501		2
61	1	59	1	go_reward	1	1	0	1	0	0	0			2
61	1	60	2	nogo_reward	1	0	1	0	1	0	0	0.450587400002405		2
61	2	61	2	nogo_reward	0	1	0	0	1	0	1	0.3649015999981202		2
61	2	62	2	nogo_reward	1	0	1	0	1	0	0	0.4450663999887183		2
61	2	63	1	go_reward	1	1	0	1	0	0	0			2
61	2	64	1	go_reward	1	1	0	1	0	0	0			2
61	2	65	1	go_reward	1	1	0	1	0	0	0			2
61	2	66	3	go_punish	1	0	-1	1	1	1	0	0.421498799987603		2
61	2	67	4	nogo_punish	0	0	-1	0	0	1	-1		1.0	2
61	2	68	1	go_reward	0	0	1	1	0	0	1			2
61	2	69	2	nogo_reward	0	1	0	0	1	0	1	0.3451765999780036		2
61	2	70	1	go_reward	1	1	0	1	0	0	0			2
61	2	71	2	nogo_reward	1	0	1	0	1	0	0	0.3609946999931708		2
61	2	72	4	nogo_punish	1	-1	0	0	1	0	-1	0.7870790000015404	0.0	2
61	2	73	3	go_punish	1	0	-1	1	1	1	0	0.4251163000008091		2
61	2	74	2	nogo_reward	1	0	1	0	1	0	0	0.5296554999949876		2
61	2	75	3	go_punish	0	-1	0	1	1	1	-1	0.3075457000231836	0.0	2
61	2	76	2	nogo_reward	1	0	1	0	1	0	0	0.4095554999948945		2
61	2	77	2	nogo_reward	1	0	1	0	1	0	0	0.3874493000039365		2
61	2	78	1	go_reward	0	0	1	1	0	0	1			2
61	2	79	3	go_punish	1	0	-1	1	0	0	-1		1.0	2
61	2	80	4	nogo_punish	1	-1	0	0	0	1	0			2
61	2	81	4	nogo_punish	0	0	-1	0	0	1	-1		1.0	2
61	2	82	2	nogo_reward	1	0	1	0	1	0	0	0.3951314000005368		2
61	2	83	4	nogo_punish	1	-1	0	0	0	1	0			2
61	2	84	2	nogo_reward	1	0	1	0	1	0	0	0.5320389999833424		2
61	2	85	4	nogo_punish	0	0	-1	0	1	0	0	0.6144061999802943		2
61	2	86	3	go_punish	1	0	-1	1	0	0	-1		0.0	2
61	2	87	1	go_reward	0	0	1	1	0	0	1			2
61	2	88	4	nogo_punish	1	-1	0	0	0	1	0			2
61	2	89	3	go_punish	1	0	-1	1	1	1	0	0.7711993999837432		2
61	2	90	2	nogo_reward	0	1	0	0	1	0	1	0.5032044999825303		2
61	2	91	2	nogo_reward	0	1	0	0	1	0	1	0.4621570000017528		2
61	2	92	3	go_punish	1	0	-1	1	1	1	0	0.3782150000042748		2
61	2	93	1	go_reward	0	0	1	1	0	0	1			2
61	2	94	4	nogo_punish	1	-1	0	0	1	0	-1	0.4104022999817971	0.0	2
61	2	95	1	go_reward	1	1	0	1	0	0	0			2
61	2	96	3	go_punish	0	-1	0	1	1	1	-1	0.3920522999833338	0.0	2
61	2	97	3	go_punish	1	0	-1	1	1	1	0	0.376379099994665		2
61	2	98	3	go_punish	0	-1	0	1	1	1	-1	0.5075366999953985	0.0	2
61	2	99	3	go_punish	1	0	-1	1	1	1	0	0.3685936999972909		2
61	2	100	1	go_reward	1	1	0	1	0	0	0			2
61	2	101	2	nogo_reward	1	0	1	0	1	0	0	0.4377965000167024		2
61	2	102	2	nogo_reward	1	0	1	0	1	0	0	0.4530679000017699		2
61	2	103	1	go_reward	1	1	0	1	0	0	0			2
61	2	104	3	go_punish	1	0	-1	1	1	1	0	0.4573679000022821		2
61	2	105	4	nogo_punish	1	-1	0	0	0	1	0			2
61	2	106	4	nogo_punish	1	-1	0	0	0	1	0			2
61	2	107	3	go_punish	1	0	-1	1	1	1	0	0.3662643000134267		2
61	2	108	4	nogo_punish	1	-1	0	0	0	1	0			2
61	2	109	4	nogo_punish	1	-1	0	0	0	1	0			2
61	2	110	1	go_reward	1	1	0	1	0	0	0			2
61	2	111	2	nogo_reward	0	1	0	0	1	0	1	0.5693332999944687		2
61	2	112	4	nogo_punish	1	-1	0	0	0	1	0			2
61	2	113	3	go_punish	1	0	-1	1	1	1	0	0.3580468000145629		2
61	2	114	1	go_reward	0	0	1	1	0	0	1			2
61	2	115	4	nogo_punish	1	-1	0	0	0	1	0			2
61	2	116	1	go_reward	0	0	1	1	0	0	1			2
61	2	117	3	go_punish	1	0	-1	1	1	1	0	0.3449655000003986		2
61	2	118	4	nogo_punish	1	-1	0	0	0	1	0			2
61	2	119	2	nogo_reward	0	1	0	0	1	0	1	0.5824464999896009		2
61	2	120	1	go_reward	1	1	0	1	0	0	0			2
61	3	121	4	nogo_punish	1	-1	0	0	0	1	0			2
61	3	122	1	go_reward	1	1	0	1	0	0	0			2
61	3	123	2	nogo_reward	1	0	1	0	1	0	0	0.3319250000058673		2
61	3	124	2	nogo_reward	0	1	0	0	1	0	1	0.5057008000148926		2
61	3	125	4	nogo_punish	1	-1	0	0	0	1	0			2
61	3	126	2	nogo_reward	1	0	1	0	1	0	0	0.410331999999471		2
61	3	127	1	go_reward	1	1	0	1	0	0	0			2
61	3	128	3	go_punish	1	0	-1	1	0	0	-1		1.0	2
61	3	129	2	nogo_reward	1	0	1	0	1	0	0	0.3731546000053641		2
61	3	130	4	nogo_punish	1	-1	0	0	1	0	-1	0.5487353999924379	0.0	2
61	3	131	1	go_reward	1	1	0	1	0	0	0			2
61	3	132	2	nogo_reward	1	0	1	0	1	0	0	0.3910065999953076		2
61	3	133	3	go_punish	1	0	-1	1	1	1	0	0.351522200013278		2
61	3	134	4	nogo_punish	1	-1	0	0	0	1	0			2
61	3	135	3	go_punish	1	0	-1	1	1	1	0	0.4582842999952845		2
61	3	136	4	nogo_punish	1	-1	0	0	0	1	0			2
61	3	137	2	nogo_reward	0	1	0	0	1	0	1	0.4408893999934662		2
61	3	138	3	go_punish	1	0	-1	1	1	1	0	0.4488989999808837		2
61	3	139	4	nogo_punish	1	-1	0	0	0	1	0			2
61	3	140	1	go_reward	1	1	0	1	0	0	0			2
61	3	141	3	go_punish	1	0	-1	1	1	1	0	0.3798927000025287		2
61	3	142	3	go_punish	0	-1	0	1	1	1	-1	0.4075758999970276	1.0	2
61	3	143	1	go_reward	0	0	1	1	0	0	1			2
61	3	144	2	nogo_reward	0	1	0	0	1	0	1	0.396521099988604		2
61	3	145	1	go_reward	0	0	1	1	0	0	1			2
61	3	146	4	nogo_punish	1	-1	0	0	0	1	0			2
61	3	147	4	nogo_punish	0	0	-1	0	0	1	-1		0.0	2
61	3	148	2	nogo_reward	1	0	1	0	1	0	0	0.3976653999998234		2
61	3	149	4	nogo_punish	0	0	-1	0	0	1	-1		0.0	2
61	3	150	2	nogo_reward	0	1	0	0	1	0	1	0.4503955999971368		2
61	3	151	4	nogo_punish	1	-1	0	0	0	1	0			2
61	3	152	2	nogo_reward	0	1	0	0	1	0	1	0.4432407999993302		2
61	3	153	1	go_reward	0	0	1	1	0	0	1			2
61	3	154	1	go_reward	1	1	0	1	0	0	0			2
61	3	155	3	go_punish	1	0	-1	1	1	1	0	0.4990683000069112		2
61	3	156	4	nogo_punish	1	-1	0	0	0	1	0			2
61	3	157	3	go_punish	1	0	-1	1	1	1	0	0.4661591000040062		2
61	3	158	2	nogo_reward	0	1	0	0	1	0	1	0.4404661000007764		2
61	3	159	1	go_reward	1	1	0	1	0	0	0			2
61	3	160	2	nogo_reward	1	0	1	0	1	0	0	0.3680378999852109		2
61	3	161	3	go_punish	1	0	-1	1	1	1	0	0.4536096999945585		2
61	3	162	1	go_reward	1	1	0	1	0	0	0			2
61	3	163	1	go_reward	1	1	0	1	0	0	0			2
61	3	164	3	go_punish	1	0	-1	1	1	1	0	0.4772478000086266		2
61	3	165	1	go_reward	0	0	1	1	0	0	1			2
61	3	166	3	go_punish	1	0	-1	1	1	1	0	0.4171109999879263		2
61	3	167	2	nogo_reward	0	1	0	0	1	0	1	0.4239712999842595		2
61	3	168	3	go_punish	0	-1	0	1	1	1	-1	0.4599070000112988	0.0	2
61	3	169	3	go_punish	1	0	-1	1	1	1	0	0.4039977000211365		2
61	3	170	4	nogo_punish	1	-1	0	0	0	1	0			2
61	3	171	1	go_reward	0	0	1	1	0	0	1			2
61	3	172	1	go_reward	0	0	1	1	0	0	1			2
61	3	173	2	nogo_reward	1	0	1	0	1	0	0	0.4786846000060905		2
61	3	174	4	nogo_punish	1	-1	0	0	0	1	0			2
61	3	175	1	go_reward	1	1	0	1	0	0	0			2
61	3	176	3	go_punish	1	0	-1	1	1	1	0	0.3378383000090253		2
61	3	177	4	nogo_punish	1	-1	0	0	0	1	0			2
61	3	178	3	go_punish	0	-1	0	1	1	1	-1	0.3735707000014372	0.0	2
61	3	179	2	nogo_reward	1	0	1	0	1	0	0	0.4427196999895385		2
61	3	180	4	nogo_punish	1	-1	0	0	0	1	0			2
60	1	1	3	nogo_reward	1	0	1	0	1	0	0	0.5784445999888703		2
60	1	2	2	go_reward	1	1	0	1	1	1	1	0.6134757999680005		2
60	1	3	1	nogo_punish	1	-1	0	0	1	0	-1	0.3732000000309199	1.0	2
60	1	4	1	nogo_punish	0	0	-1	0	0	1	-1		1.0	2
60	1	5	4	go_punish	1	0	-1	1	1	1	0	0.3046193000045605		2
60	1	6	3	nogo_reward	0	1	0	0	0	1	0			2
60	1	7	3	nogo_reward	1	0	1	0	1	0	0	0.46775810001418		2
60	1	8	2	go_reward	1	1	0	1	1	1	1	0.4741929000010714		2
60	1	9	3	nogo_reward	0	1	0	0	0	1	0			2
60	1	10	2	go_reward	1	1	0	1	1	1	1	0.366836900007911		2
60	1	11	2	go_reward	0	0	1	1	1	1	0	0.4074160999734886		2
60	1	12	4	go_punish	1	0	-1	1	1	1	0	0.6079422999755479		2
60	1	13	4	go_punish	1	0	-1	1	0	0	-1		0.0	2
60	1	14	4	go_punish	1	0	-1	1	1	1	0	0.3187615000060759		2
60	1	15	3	nogo_reward	1	0	1	0	1	0	0	0.4007376999943517		2
60	1	16	3	nogo_reward	1	0	1	0	0	1	1			2
60	1	17	3	nogo_reward	1	0	1	0	0	1	1			2
60	1	18	3	nogo_reward	1	0	1	0	0	1	1			2
60	1	19	2	go_reward	1	1	0	1	1	1	1	0.5339953999500722		2
60	1	20	1	nogo_punish	0	0	-1	0	0	1	-1		1.0	2
60	1	21	3	nogo_reward	0	1	0	0	0	1	0			2
60	1	22	4	go_punish	1	0	-1	1	0	0	-1		1.0	2
60	1	23	3	nogo_reward	1	0	1	0	0	1	1			2
60	1	24	1	nogo_punish	1	-1	0	0	0	1	0			2
60	1	25	2	go_reward	0	0	1	1	1	1	0	0.4822709000436589		2
60	1	26	2	go_reward	1	1	0	1	1	1	1	0.4701408999972045		2
60	1	27	3	nogo_reward	1	0	1	0	0	1	1			2
60	1	28	1	nogo_punish	1	-1	0	0	0	1	0			2
60	1	29	2	go_reward	0	0	1	1	1	1	0	0.4010555999702774		2
60	1	30	2	go_reward	1	1	0	1	1	1	1	0.3814896999974735		2
60	1	31	4	go_punish	0	-1	0	1	1	1	-1	0.4417664000065997	0.0	2
60	1	32	2	go_reward	1	1	0	1	1	1	1	0.4155002000043169		2
60	1	33	1	nogo_punish	0	0	-1	0	0	1	-1		0.0	2
60	1	34	4	go_punish	0	-1	0	1	1	1	-1	0.2629091999842785	0.0	2
60	1	35	1	nogo_punish	1	-1	0	0	1	0	-1	0.3953595000202768	1.0	2
60	1	36	2	go_reward	1	1	0	1	1	1	1	0.5628490000381134		2
60	1	37	2	go_reward	1	1	0	1	1	1	1	0.4337908999877982		2
60	1	38	2	go_reward	0	0	1	1	1	1	0	0.461580699949991		2
60	1	39	4	go_punish	0	-1	0	1	0	0	0			2
60	1	40	3	nogo_reward	1	0	1	0	0	1	1			2
60	1	41	3	nogo_reward	1	0	1	0	0	1	1			2
60	1	42	1	nogo_punish	1	-1	0	0	1	0	-1	0.6440077999723144	0.0	2
60	1	43	1	nogo_punish	1	-1	0	0	0	1	0			2
60	1	44	2	go_reward	1	1	0	1	1	1	1	0.9469673999701628		2
60	1	45	4	go_punish	0	-1	0	1	0	0	0			2
60	1	46	1	nogo_punish	1	-1	0	0	1	0	-1	0.3415726999519393	0.0	2
60	1	47	4	go_punish	0	-1	0	1	0	0	0			2
60	1	48	4	go_punish	1	0	-1	1	0	0	-1		0.0	2
60	1	49	3	nogo_reward	1	0	1	0	0	1	1			2
60	1	50	2	go_reward	1	1	0	1	1	1	1	0.367292900045868		2
60	1	51	4	go_punish	1	0	-1	1	0	0	-1		1.0	2
60	1	52	1	nogo_punish	1	-1	0	0	0	1	0			2
60	1	53	1	nogo_punish	0	0	-1	0	0	1	-1		0.0	2
60	1	54	3	nogo_reward	0	1	0	0	0	1	0			2
60	1	55	4	go_punish	1	0	-1	1	1	1	0	0.5410972000099719		2
60	1	56	1	nogo_punish	1	-1	0	0	0	1	0			2
60	1	57	4	go_punish	1	0	-1	1	1	1	0	0.3151253999676555		2
60	1	58	4	go_punish	1	0	-1	1	1	1	0	0.6920205000205897		2
60	1	59	1	nogo_punish	1	-1	0	0	0	1	0			2
60	1	60	1	nogo_punish	0	0	-1	0	0	1	-1		1.0	2
60	2	61	3	nogo_reward	1	0	1	0	0	1	1			2
60	2	62	3	nogo_reward	1	0	1	0	0	1	1			2
60	2	63	1	nogo_punish	0	0	-1	0	0	1	-1		1.0	2
60	2	64	3	nogo_reward	1	0	1	0	0	1	1			2
60	2	65	4	go_punish	1	0	-1	1	1	1	0	0.3116125999949872		2
60	2	66	3	nogo_reward	1	0	1	0	0	1	1			2
60	2	67	2	go_reward	0	0	1	1	1	1	0	0.3004013000172563		2
60	2	68	2	go_reward	1	1	0	1	1	1	1	0.3545296000083908		2
60	2	69	4	go_punish	0	-1	0	1	1	1	-1	0.5581489999894984	0.0	2
60	2	70	2	go_reward	0	0	1	1	1	1	0	0.3586457999772392		2
60	2	71	3	nogo_reward	0	1	0	0	0	1	0			2
60	2	72	2	go_reward	1	1	0	1	1	1	1	0.4073670000070706		2
60	2	73	3	nogo_reward	1	0	1	0	0	1	1			2
60	2	74	2	go_reward	1	1	0	1	1	1	1	0.6999462000094354		2
60	2	75	2	go_reward	1	1	0	1	1	1	1	0.271844599978067		2
60	2	76	4	go_punish	1	0	-1	1	1	1	0	0.2781839999952353		2
60	2	77	4	go_punish	1	0	-1	1	1	1	0	0.4139649999560788		2
60	2	78	1	nogo_punish	1	-1	0	0	0	1	0			2
60	2	79	3	nogo_reward	0	1	0	0	0	1	0			2
60	2	80	4	go_punish	0	-1	0	1	1	1	-1	0.5055181999923661	0.0	2
60	2	81	2	go_reward	1	1	0	1	1	1	1	0.3136993999942206		2
60	2	82	3	nogo_reward	1	0	1	0	0	1	1			2
60	2	83	1	nogo_punish	1	-1	0	0	0	1	0			2
60	2	84	4	go_punish	1	0	-1	1	1	1	0	0.815099100000225		2
60	2	85	3	nogo_reward	1	0	1	0	0	1	1			2
60	2	86	2	go_reward	1	1	0	1	1	1	1	0.4214529999881052		2
60	2	87	1	nogo_punish	1	-1	0	0	0	1	0			2
60	2	88	1	nogo_punish	1	-1	0	0	0	1	0			2
60	2	89	1	nogo_punish	0	0	-1	0	0	1	-1		0.0	2
60	2	90	1	nogo_punish	1	-1	0	0	0	1	0			2
60	2	91	1	nogo_punish	1	-1	0	0	0	1	0			2
60	2	92	1	nogo_punish	0	0	-1	0	0	1	-1		0.0	2
60	2	93	2	go_reward	1	1	0	1	1	1	1	0.2938802000135183		2
60	2	94	4	go_punish	1	0	-1	1	1	1	0	0.3090444000554271		2
60	2	95	3	nogo_reward	1	0	1	0	0	1	1			2
60	2	96	1	nogo_punish	1	-1	0	0	0	1	0			2
60	2	97	2	go_reward	1	1	0	1	1	1	1	0.4496629000059329		2
60	2	98	4	go_punish	0	-1	0	1	1	1	-1	0.4086311999708414	1.0	2
60	2	99	4	go_punish	1	0	-1	1	1	1	0	0.2391097000217996		2
60	2	100	4	go_punish	0	-1	0	1	1	1	-1	0.4521378999925218	0.0	2
60	2	101	3	nogo_reward	1	0	1	0	0	1	1			2
60	2	102	1	nogo_punish	1	-1	0	0	0	1	0			2
60	2	103	1	nogo_punish	1	-1	0	0	0	1	0			2
60	2	104	4	go_punish	0	-1	0	1	1	1	-1	0.4506156000425108	1.0	2
60	2	105	1	nogo_punish	1	-1	0	0	0	1	0			2
60	2	106	1	nogo_punish	1	-1	0	0	0	1	0			2
60	2	107	3	nogo_reward	1	0	1	0	0	1	1			2
60	2	108	2	go_reward	1	1	0	1	1	1	1	0.3971821000450291		2
60	2	109	2	go_reward	1	1	0	1	1	1	1	0.3904756999691017		2
60	2	110	4	go_punish	1	0	-1	1	1	1	0	0.7732957000262104		2
60	2	111	2	go_reward	0	0	1	1	1	1	0	0.6086012000450864		2
60	2	112	4	go_punish	1	0	-1	1	1	1	0	0.3533140000072308		2
60	2	113	4	go_punish	0	-1	0	1	1	1	-1	0.4927753999945708	1.0	2
60	2	114	4	go_punish	1	0	-1	1	1	1	0	0.3287630999693647		2
60	2	115	3	nogo_reward	0	1	0	0	0	1	0			2
60	2	116	2	go_reward	1	1	0	1	1	1	1	0.4193717000307515		2
60	2	117	2	go_reward	0	0	1	1	1	1	0	0.3604816000442952		2
60	2	118	3	nogo_reward	0	1	0	0	0	1	0			2
60	2	119	1	nogo_punish	1	-1	0	0	0	1	0			2
60	2	120	3	nogo_reward	0	1	0	0	0	1	0			2
60	3	121	2	go_reward	0	0	1	1	1	1	0	0.5526762999943458		2
60	3	122	3	nogo_reward	1	0	1	0	0	1	1			2
60	3	123	2	go_reward	1	1	0	1	1	1	1	0.4930246999720112		2
60	3	124	2	go_reward	0	0	1	1	1	1	0	0.3893019999959506		2
60	3	125	2	go_reward	1	1	0	1	1	1	1	0.3869448999757879		2
60	3	126	3	nogo_reward	1	0	1	0	0	1	1			2
60	3	127	2	go_reward	1	1	0	1	1	1	1	0.3048717000056058		2
60	3	128	1	nogo_punish	1	-1	0	0	0	1	0			2
60	3	129	2	go_reward	1	1	0	1	1	1	1	0.343135799979791		2
60	3	130	3	nogo_reward	0	1	0	0	0	1	0			2
60	3	131	1	nogo_punish	0	0	-1	0	0	1	-1		1.0	2
60	3	132	2	go_reward	0	0	1	1	1	1	0	0.3568629999645054		2
60	3	133	1	nogo_punish	0	0	-1	0	0	1	-1		0.0	2
60	3	134	4	go_punish	0	-1	0	1	1	1	-1	0.4964729999774136	1.0	2
60	3	135	4	go_punish	1	0	-1	1	1	1	0	0.3784125999663957		2
60	3	136	2	go_reward	1	1	0	1	1	1	1	0.2580965000088326		2
60	3	137	3	nogo_reward	0	1	0	0	0	1	0			2
60	3	138	1	nogo_punish	1	-1	0	0	0	1	0			2
60	3	139	4	go_punish	0	-1	0	1	1	1	-1	0.398649699985981	0.0	2
60	3	140	4	go_punish	1	0	-1	1	1	1	0	0.5202539999736473		2
60	3	141	4	go_punish	0	-1	0	1	1	1	-1	0.4286347000161186	1.0	2
60	3	142	3	nogo_reward	1	0	1	0	0	1	1			2
60	3	143	1	nogo_punish	0	0	-1	0	0	1	-1		0.0	2
60	3	144	1	nogo_punish	1	-1	0	0	0	1	0			2
60	3	145	4	go_punish	0	-1	0	1	1	1	-1	0.4550842000171542	0.0	2
60	3	146	4	go_punish	1	0	-1	1	1	1	0	0.4036326999776065		2
60	3	147	4	go_punish	1	0	-1	1	1	1	0	0.8818059000186622		2
60	3	148	2	go_reward	1	1	0	1	1	1	1	0.3277111999923363		2
60	3	149	4	go_punish	1	0	-1	1	1	1	0	0.2732128999778069		2
60	3	150	2	go_reward	1	1	0	1	1	1	1	0.4159248999785632		2
60	3	151	1	nogo_punish	1	-1	0	0	0	1	0			2
60	3	152	2	go_reward	1	1	0	1	1	1	1	0.7540177999762818		2
60	3	153	4	go_punish	1	0	-1	1	1	1	0	0.4008523999946192		2
60	3	154	3	nogo_reward	1	0	1	0	0	1	1			2
60	3	155	4	go_punish	1	0	-1	1	1	1	0	0.627978999982588		2
60	3	156	3	nogo_reward	1	0	1	0	0	1	1			2
60	3	157	1	nogo_punish	1	-1	0	0	0	1	0			2
60	3	158	3	nogo_reward	1	0	1	0	0	1	1			2
60	3	159	1	nogo_punish	1	-1	0	0	0	1	0			2
60	3	160	4	go_punish	1	0	-1	1	1	1	0	0.3944144000415689		2
60	3	161	3	nogo_reward	1	0	1	0	0	1	1			2
60	3	162	4	go_punish	1	0	-1	1	0	0	-1		1.0	2
60	3	163	1	nogo_punish	0	0	-1	0	0	1	-1		0.0	2
60	3	164	2	go_reward	1	1	0	1	1	1	1	0.2667505999561399		2
60	3	165	1	nogo_punish	1	-1	0	0	0	1	0			2
60	3	166	2	go_reward	1	1	0	1	1	1	1	0.2933631999767385		2
60	3	167	3	nogo_reward	1	0	1	0	0	1	1			2
60	3	168	1	nogo_punish	1	-1	0	0	0	1	0			2
60	3	169	3	nogo_reward	1	0	1	0	0	1	1			2
60	3	170	3	nogo_reward	1	0	1	0	0	1	1			2
60	3	171	3	nogo_reward	1	0	1	0	0	1	1			2
60	3	172	3	nogo_reward	1	0	1	0	0	1	1			2
60	3	173	3	nogo_reward	0	1	0	0	0	1	0			2
60	3	174	1	nogo_punish	1	-1	0	0	0	1	0			2
60	3	175	2	go_reward	0	0	1	1	0	0	1			2
60	3	176	1	nogo_punish	0	0	-1	0	0	1	-1		0.0	2
60	3	177	2	go_reward	0	0	1	1	1	1	0	0.307058899954427		2
60	3	178	4	go_punish	1	0	-1	1	1	1	0	0.4324625000008382		2
60	3	179	1	nogo_punish	1	-1	0	0	0	1	0			2
60	3	180	4	go_punish	0	-1	0	1	1	1	-1	0.5213704999769107	0.0	2
63	1	1	2	nogo_punish	1	-1	0	0	1	0	-1	0.2530447000171989	1.0	2
63	1	2	4	nogo_reward	1	0	1	0	1	0	0	0.5626851000124589		2
63	1	3	3	go_reward	1	1	0	1	1	1	1	0.2710179000278003		2
63	1	4	4	nogo_reward	1	0	1	0	0	1	1			2
63	1	5	2	nogo_punish	1	-1	0	0	0	1	0			2
63	1	6	1	go_punish	1	0	-1	1	0	0	-1		0.0	2
63	1	7	2	nogo_punish	1	-1	0	0	0	1	0			2
63	1	8	2	nogo_punish	1	-1	0	0	0	1	0			2
63	1	9	1	go_punish	1	0	-1	1	1	1	0	0.2586132999858819		2
63	1	10	3	go_reward	0	0	1	1	1	1	0	0.2343914000084624		2
63	1	11	1	go_punish	1	0	-1	1	1	1	0	0.2315984999877401		2
63	1	12	3	go_reward	1	1	0	1	1	1	1	0.2648259000270627		2
63	1	13	3	go_reward	1	1	0	1	1	1	1	0.3759144999785349		2
63	1	14	3	go_reward	1	1	0	1	1	1	1	0.4692957000224851		2
63	1	15	3	go_reward	1	1	0	1	1	1	1	0.386120600043796		2
63	1	16	4	nogo_reward	1	0	1	0	0	1	1			2
63	1	17	4	nogo_reward	1	0	1	0	0	1	1			2
63	1	18	4	nogo_reward	1	0	1	0	0	1	1			2
63	1	19	2	nogo_punish	1	-1	0	0	0	1	0			2
63	1	20	4	nogo_reward	1	0	1	0	0	1	1			2
63	1	21	4	nogo_reward	1	0	1	0	0	1	1			2
63	1	22	1	go_punish	0	-1	0	1	1	1	-1	0.2986972000217065	0.0	2
63	1	23	4	nogo_reward	0	1	0	0	0	1	0			2
63	1	24	4	nogo_reward	0	1	0	0	0	1	0			2
63	1	25	2	nogo_punish	0	0	-1	0	0	1	-1		0.0	2
63	1	26	1	go_punish	1	0	-1	1	1	1	0	0.2997308999765664		2
63	1	27	1	go_punish	1	0	-1	1	1	1	0	0.3592352000414394		2
63	1	28	1	go_punish	0	-1	0	1	1	1	-1	0.3959025000222027	0.0	2
63	1	29	4	nogo_reward	1	0	1	0	0	1	1			2
63	1	30	1	go_punish	1	0	-1	1	1	1	0	0.2591914999647997		2
63	1	31	1	go_punish	0	-1	0	1	1	1	-1	0.3673255000030622	0.0	2
63	1	32	4	nogo_reward	1	0	1	0	0	1	1			2
63	1	33	2	nogo_punish	1	-1	0	0	0	1	0			2
63	1	34	3	go_reward	1	1	0	1	1	1	1	0.2289674999774433		2
63	1	35	2	nogo_punish	1	-1	0	0	0	1	0			2
63	1	36	2	nogo_punish	1	-1	0	0	0	1	0			2
63	1	37	3	go_reward	0	0	1	1	1	1	0	0.3728007000172511		2
63	1	38	3	go_reward	1	1	0	1	1	1	1	0.2930627999594435		2
63	1	39	1	go_punish	0	-1	0	1	1	1	-1	0.2970302999601699	0.0	2
63	1	40	2	nogo_punish	0	0	-1	0	0	1	-1		0.0	2
63	1	41	3	go_reward	1	1	0	1	1	1	1	0.3887659999891184		2
63	1	42	2	nogo_punish	0	0	-1	0	1	0	0	0.2333120999974198		2
63	1	43	1	go_punish	0	-1	0	1	0	0	0			2
63	1	44	1	go_punish	1	0	-1	1	0	0	-1		0.0	2
63	1	45	1	go_punish	1	0	-1	1	0	0	-1		1.0	2
63	1	46	1	go_punish	0	-1	0	1	1	1	-1	0.259536899975501	0.0	2
63	1	47	2	nogo_punish	1	-1	0	0	0	1	0			2
63	1	48	3	go_reward	1	1	0	1	1	1	1	0.2666906000231393		2
63	1	49	4	nogo_reward	1	0	1	0	0	1	1			2
63	1	50	3	go_reward	0	0	1	1	1	1	0	0.2977804000256583		2
63	1	51	4	nogo_reward	0	1	0	0	0	1	0			2
63	1	52	3	go_reward	1	1	0	1	1	1	1	0.2759668999933637		2
63	1	53	2	nogo_punish	1	-1	0	0	0	1	0			2
63	1	54	2	nogo_punish	1	-1	0	0	0	1	0			2
63	1	55	3	go_reward	0	0	1	1	1	1	0	0.4273285000235773		2
63	1	56	4	nogo_reward	0	1	0	0	0	1	0			2
63	1	57	1	go_punish	0	-1	0	1	1	1	-1	0.2619670000276528	0.0	2
63	1	58	4	nogo_reward	1	0	1	0	0	1	1			2
63	1	59	2	nogo_punish	1	-1	0	0	0	1	0			2
63	1	60	3	go_reward	1	1	0	1	1	1	1	0.3104810999939218		2
63	2	61	3	go_reward	0	0	1	1	1	1	0	0.2704102999996394		2
63	2	62	2	nogo_punish	1	-1	0	0	0	1	0			2
63	2	63	1	go_punish	1	0	-1	1	1	1	0	0.2869765000068582		2
63	2	64	4	nogo_reward	1	0	1	0	0	1	1			2
63	2	65	3	go_reward	1	1	0	1	1	1	1	0.3468397000106052		2
63	2	66	4	nogo_reward	1	0	1	0	0	1	1			2
63	2	67	1	go_punish	1	0	-1	1	1	1	0	0.2176656000083312		2
63	2	68	2	nogo_punish	1	-1	0	0	0	1	0			2
63	2	69	2	nogo_punish	1	-1	0	0	0	1	0			2
63	2	70	4	nogo_reward	1	0	1	0	0	1	1			2
63	2	71	2	nogo_punish	0	0	-1	0	0	1	-1		1.0	2
63	2	72	1	go_punish	1	0	-1	1	1	1	0	0.2598465000046417		2
63	2	73	2	nogo_punish	1	-1	0	0	0	1	0			2
63	2	74	4	nogo_reward	1	0	1	0	0	1	1			2
63	2	75	1	go_punish	1	0	-1	1	1	1	0	0.2427673000493087		2
63	2	76	1	go_punish	0	-1	0	1	1	1	-1	0.3986842999584041	0.0	2
63	2	77	4	nogo_reward	0	1	0	0	0	1	0			2
63	2	78	3	go_reward	0	0	1	1	1	1	0	0.2906793999718502		2
63	2	79	4	nogo_reward	1	0	1	0	0	1	1			2
63	2	80	4	nogo_reward	0	1	0	0	0	1	0			2
63	2	81	2	nogo_punish	1	-1	0	0	0	1	0			2
63	2	82	4	nogo_reward	1	0	1	0	0	1	1			2
63	2	83	1	go_punish	1	0	-1	1	1	1	0	0.2904424999724142		2
63	2	84	1	go_punish	0	-1	0	1	1	1	-1	0.2415148999425582	0.0	2
63	2	85	4	nogo_reward	1	0	1	0	0	1	1			2
63	2	86	2	nogo_punish	1	-1	0	0	0	1	0			2
63	2	87	1	go_punish	1	0	-1	1	1	1	0	0.2323570000007749		2
63	2	88	1	go_punish	0	-1	0	1	1	1	-1	0.3986837000120431	0.0	2
63	2	89	3	go_reward	1	1	0	1	1	1	1	0.3223468000069261		2
63	2	90	3	go_reward	0	0	1	1	1	1	0	0.2977299999911338		2
63	2	91	1	go_punish	1	0	-1	1	1	1	0	0.2627622000291012		2
63	2	92	3	go_reward	1	1	0	1	1	1	1	0.2941826000460423		2
63	2	93	2	nogo_punish	0	0	-1	0	0	1	-1		1.0	2
63	2	94	4	nogo_reward	0	1	0	0	0	1	0			2
63	2	95	3	go_reward	1	1	0	1	1	1	1	0.2873551000375301		2
63	2	96	2	nogo_punish	0	0	-1	0	0	1	-1		0.0	2
63	2	97	4	nogo_reward	0	1	0	0	0	1	0			2
63	2	98	3	go_reward	1	1	0	1	1	1	1	0.2818511999794282		2
63	2	99	1	go_punish	1	0	-1	1	1	1	0	0.4707697000121698		2
63	2	100	4	nogo_reward	0	1	0	0	0	1	0			2
63	2	101	4	nogo_reward	1	0	1	0	0	1	1			2
63	2	102	2	nogo_punish	1	-1	0	0	0	1	0			2
63	2	103	2	nogo_punish	1	-1	0	0	0	1	0			2
63	2	104	3	go_reward	1	1	0	1	1	1	1	0.4455942999920808		2
63	2	105	3	go_reward	1	1	0	1	1	1	1	0.3508690999587998		2
63	2	106	1	go_punish	0	-1	0	1	1	1	-1	0.2502073999494314	0.0	2
63	2	107	1	go_punish	1	0	-1	1	1	1	0	0.2993943000328727		2
63	2	108	1	go_punish	1	0	-1	1	1	1	0	0.2582673999713734		2
63	2	109	3	go_reward	1	1	0	1	1	1	1	0.2552397000254132		2
63	2	110	3	go_reward	1	1	0	1	1	1	1	0.4115451999823563		2
63	2	111	4	nogo_reward	1	0	1	0	0	1	1			2
63	2	112	4	nogo_reward	1	0	1	0	0	1	1			2
63	2	113	1	go_punish	0	-1	0	1	1	1	-1	0.2906592999934219	1.0	2
63	2	114	2	nogo_punish	1	-1	0	0	0	1	0			2
63	2	115	3	go_reward	0	0	1	1	1	1	0	0.2834475000272505		2
63	2	116	2	nogo_punish	1	-1	0	0	0	1	0			2
63	2	117	3	go_reward	1	1	0	1	1	1	1	0.2709369999938644		2
63	2	118	2	nogo_punish	1	-1	0	0	0	1	0			2
63	2	119	2	nogo_punish	1	-1	0	0	0	1	0			2
63	2	120	3	go_reward	0	0	1	1	1	1	0	0.2999759999802336		2
63	3	121	1	go_punish	1	0	-1	1	1	1	0	0.2888452000333928		2
63	3	122	1	go_punish	1	0	-1	1	1	1	0	0.2820787000237033		2
63	3	123	4	nogo_reward	1	0	1	0	0	1	1			2
63	3	124	1	go_punish	1	0	-1	1	1	1	0	0.2673060999950394		2
63	3	125	4	nogo_reward	1	0	1	0	0	1	1			2
63	3	126	2	nogo_punish	1	-1	0	0	0	1	0			2
63	3	127	2	nogo_punish	1	-1	0	0	0	1	0			2
63	3	128	2	nogo_punish	0	0	-1	0	0	1	-1		1.0	2
63	3	129	2	nogo_punish	1	-1	0	0	0	1	0			2
63	3	130	3	go_reward	0	0	1	1	1	1	0	0.282332300033886		2
63	3	131	3	go_reward	1	1	0	1	1	1	1	0.2952154999948107		2
63	3	132	2	nogo_punish	0	0	-1	0	0	1	-1		1.0	2
63	3	133	2	nogo_punish	1	-1	0	0	0	1	0			2
63	3	134	3	go_reward	1	1	0	1	1	1	1	0.3202599000069313		2
63	3	135	3	go_reward	1	1	0	1	1	1	1	0.3702248000190593		2
63	3	136	2	nogo_punish	0	0	-1	0	0	1	-1		0.0	2
63	3	137	1	go_punish	1	0	-1	1	1	1	0	0.247094799997285		2
63	3	138	3	go_reward	0	0	1	1	1	1	0	0.3100617000018246		2
63	3	139	2	nogo_punish	1	-1	0	0	0	1	0			2
63	3	140	4	nogo_reward	1	0	1	0	0	1	1			2
63	3	141	3	go_reward	0	0	1	1	1	1	0	0.3202154000173323		2
63	3	142	3	go_reward	0	0	1	1	1	1	0	0.6738636000081897		2
63	3	143	1	go_punish	1	0	-1	1	1	1	0	0.2367471999605186		2
63	3	144	4	nogo_reward	1	0	1	0	0	1	1			2
63	3	145	4	nogo_reward	1	0	1	0	0	1	1			2
63	3	146	4	nogo_reward	1	0	1	0	0	1	1			2
63	3	147	1	go_punish	1	0	-1	1	1	1	0	0.3308058999828063		2
63	3	148	2	nogo_punish	0	0	-1	0	0	1	-1		1.0	2
63	3	149	1	go_punish	1	0	-1	1	1	1	0	0.2936473999870941		2
63	3	150	1	go_punish	1	0	-1	1	1	1	0	0.3065801000338979		2
63	3	151	3	go_reward	1	1	0	1	1	1	1	0.2608997999923304		2
63	3	152	4	nogo_reward	1	0	1	0	0	1	1			2
63	3	153	1	go_punish	0	-1	0	1	1	1	-1	0.3082729000016116	0.0	2
63	3	154	4	nogo_reward	1	0	1	0	0	1	1			2
63	3	155	4	nogo_reward	1	0	1	0	0	1	1			2
63	3	156	4	nogo_reward	1	0	1	0	0	1	1			2
63	3	157	3	go_reward	1	1	0	1	1	1	1	0.2732864000136033		2
63	3	158	3	go_reward	1	1	0	1	1	1	1	0.3309873000252992		2
63	3	159	1	go_punish	0	-1	0	1	1	1	-1	0.3952890000073239	0.0	2
63	3	160	4	nogo_reward	1	0	1	0	0	1	1			2
63	3	161	3	go_reward	1	1	0	1	1	1	1	0.2255018000141717		2
63	3	162	3	go_reward	0	0	1	1	1	1	0	0.261666200007312		2
63	3	163	1	go_punish	1	0	-1	1	1	1	0	0.385795199952554		2
63	3	164	4	nogo_reward	1	0	1	0	0	1	1			2
63	3	165	2	nogo_punish	0	0	-1	0	0	1	-1		1.0	2
63	3	166	2	nogo_punish	1	-1	0	0	0	1	0			2
63	3	167	2	nogo_punish	1	-1	0	0	0	1	0			2
63	3	168	2	nogo_punish	1	-1	0	0	0	1	0			2
63	3	169	1	go_punish	0	-1	0	1	1	1	-1	0.2994278999976814	0.0	2
63	3	170	3	go_reward	0	0	1	1	1	1	0	0.2812352000037208		2
63	3	171	1	go_punish	1	0	-1	1	1	1	0	0.2601943000336177		2
63	3	172	3	go_reward	1	1	0	1	1	1	1	0.2873545999755152		2
63	3	173	2	nogo_punish	0	0	-1	0	0	1	-1		0.0	2
63	3	174	4	nogo_reward	1	0	1	0	0	1	1			2
63	3	175	4	nogo_reward	1	0	1	0	0	1	1			2
63	3	176	4	nogo_reward	1	0	1	0	0	1	1			2
63	3	177	3	go_reward	0	0	1	1	1	1	0	0.3380262000137009		2
63	3	178	1	go_punish	0	-1	0	1	1	1	-1	0.2818900999845937	1.0	2
63	3	179	2	nogo_punish	1	-1	0	0	0	1	0			2
63	3	180	1	go_punish	0	-1	0	1	1	1	-1	0.3463844999787397	0.0	2
64	1	1	3	nogo_reward	1	0	1	0	0	1	1			2
64	1	2	1	nogo_punish	0	0	-1	0	0	1	-1		1.0	2
64	1	3	2	go_reward	1	1	0	1	0	0	0			2
64	1	4	3	nogo_reward	0	1	0	0	0	1	0			2
64	1	5	3	nogo_reward	0	1	0	0	1	0	1	0.3930841000110377		2
64	1	6	4	go_punish	1	0	-1	1	0	0	-1		0.0	2
64	1	7	2	go_reward	1	1	0	1	1	1	1	0.2859650999889709		2
64	1	8	4	go_punish	0	-1	0	1	0	0	0			2
64	1	9	3	nogo_reward	1	0	1	0	1	0	0	0.4485362000123132		2
64	1	10	4	go_punish	1	0	-1	1	1	1	0	0.3249560999975074		2
64	1	11	1	nogo_punish	1	-1	0	0	1	0	-1	0.2637150000082329	0.0	2
64	1	12	4	go_punish	0	-1	0	1	1	1	-1	0.2867951999942306	0.0	2
64	1	13	4	go_punish	0	-1	0	1	0	0	0			2
64	1	14	2	go_reward	1	1	0	1	1	1	1	0.2665059999853838		2
64	1	15	2	go_reward	1	1	0	1	1	1	1	0.4473447999916971		2
64	1	16	3	nogo_reward	1	0	1	0	1	0	0	0.2649581999867223		2
64	1	17	2	go_reward	0	0	1	1	1	1	0	0.3912127000221517		2
64	1	18	2	go_reward	0	0	1	1	1	1	0	0.3023869000026025		2
64	1	19	4	go_punish	1	0	-1	1	0	0	-1		0.0	2
64	1	20	2	go_reward	1	1	0	1	1	1	1	0.7111602000077255		2
64	1	21	1	nogo_punish	1	-1	0	0	0	1	0			2
64	1	22	4	go_punish	1	0	-1	1	0	0	-1		0.0	2
64	1	23	1	nogo_punish	1	-1	0	0	0	1	0			2
64	1	24	3	nogo_reward	1	0	1	0	1	0	0	0.3465339000103995		2
64	1	25	1	nogo_punish	0	0	-1	0	0	1	-1		0.0	2
64	1	26	1	nogo_punish	1	-1	0	0	0	1	0			2
64	1	27	2	go_reward	1	1	0	1	1	1	1	0.2683584000042174		2
64	1	28	1	nogo_punish	1	-1	0	0	0	1	0			2
64	1	29	1	nogo_punish	1	-1	0	0	0	1	0			2
64	1	30	3	nogo_reward	1	0	1	0	0	1	1			2
64	1	31	2	go_reward	1	1	0	1	1	1	1	0.2616640000196639		2
64	1	32	1	nogo_punish	1	-1	0	0	0	1	0			2
64	1	33	1	nogo_punish	0	0	-1	0	0	1	-1		0.0	2
64	1	34	1	nogo_punish	0	0	-1	0	0	1	-1		1.0	2
64	1	35	2	go_reward	0	0	1	1	1	1	0	0.7084396999853197		2
64	1	36	3	nogo_reward	1	0	1	0	0	1	1			2
64	1	37	3	nogo_reward	0	1	0	0	0	1	0			2
64	1	38	3	nogo_reward	1	0	1	0	0	1	1			2
64	1	39	2	go_reward	1	1	0	1	1	1	1	0.3553728999977465		2
64	1	40	1	nogo_punish	0	0	-1	0	1	0	0	0.4755302999983542		2
64	1	41	2	go_reward	1	1	0	1	1	1	1	0.3469184999994468		2
64	1	42	2	go_reward	0	0	1	1	1	1	0	0.3464045000146143		2
64	1	43	3	nogo_reward	1	0	1	0	0	1	1			2
64	1	44	4	go_punish	1	0	-1	1	0	0	-1		0.0	2
64	1	45	1	nogo_punish	0	0	-1	0	0	1	-1		0.0	2
64	1	46	4	go_punish	1	0	-1	1	0	0	-1		0.0	2
64	1	47	1	nogo_punish	0	0	-1	0	1	0	0	0.2718542999937199		2
64	1	48	1	nogo_punish	1	-1	0	0	1	0	-1	0.2920191999874078	0.0	2
64	1	49	4	go_punish	1	0	-1	1	1	1	0	0.3410218000062741		2
64	1	50	4	go_punish	1	0	-1	1	1	1	0	0.9096169000258668		2
64	1	51	3	nogo_reward	1	0	1	0	0	1	1			2
64	1	52	4	go_punish	1	0	-1	1	0	0	-1		0.0	2
64	1	53	4	go_punish	1	0	-1	1	1	1	0	0.5789097999804653		2
64	1	54	4	go_punish	1	0	-1	1	0	0	-1		0.0	2
64	1	55	3	nogo_reward	1	0	1	0	0	1	1			2
64	1	56	2	go_reward	0	0	1	1	1	1	0	0.321519699995406		2
64	1	57	2	go_reward	1	1	0	1	1	1	1	0.2999226000101771		2
64	1	58	4	go_punish	1	0	-1	1	1	1	0	0.3155019000114407		2
64	1	59	3	nogo_reward	1	0	1	0	0	1	1			2
64	1	60	3	nogo_reward	1	0	1	0	0	1	1			2
64	2	61	4	go_punish	0	-1	0	1	0	0	0			2
64	2	62	1	nogo_punish	0	0	-1	0	0	1	-1		1.0	2
64	2	63	2	go_reward	0	0	1	1	1	1	0	0.4074961000005714		2
64	2	64	3	nogo_reward	1	0	1	0	0	1	1			2
64	2	65	3	nogo_reward	1	0	1	0	0	1	1			2
64	2	66	1	nogo_punish	1	-1	0	0	1	0	-1	0.2384593000169843	0.0	2
64	2	67	2	go_reward	1	1	0	1	0	0	0			2
64	2	68	2	go_reward	1	1	0	1	0	0	0			2
64	2	69	2	go_reward	1	1	0	1	0	0	0			2
64	2	70	3	nogo_reward	1	0	1	0	0	1	1			2
64	2	71	4	go_punish	1	0	-1	1	0	0	-1		1.0	2
64	2	72	3	nogo_reward	1	0	1	0	0	1	1			2
64	2	73	4	go_punish	1	0	-1	1	1	1	0	0.2550044000090565		2
64	2	74	4	go_punish	1	0	-1	1	1	1	0	0.4387535000278149		2
64	2	75	3	nogo_reward	1	0	1	0	0	1	1			2
64	2	76	2	go_reward	1	1	0	1	1	1	1	0.5474710999988021		2
64	2	77	1	nogo_punish	0	0	-1	0	1	0	0	0.2379986000014469		2
64	2	78	1	nogo_punish	1	-1	0	0	1	0	-1	0.2788817999826278	0.0	2
64	2	79	4	go_punish	0	-1	0	1	1	1	-1	0.3672687999787741	1.0	2
64	2	80	4	go_punish	1	0	-1	1	1	1	0	0.2588844000129029		2
64	2	81	4	go_punish	1	0	-1	1	1	1	0	0.2516398000007029		2
64	2	82	2	go_reward	1	1	0	1	1	1	1	0.2343794999760576		2
64	2	83	1	nogo_punish	1	-1	0	0	1	0	-1	0.4626252999878489	0.0	2
64	2	84	4	go_punish	0	-1	0	1	1	1	-1	0.2105618999921716	0.0	2
64	2	85	3	nogo_reward	0	1	0	0	0	1	0			2
64	2	86	3	nogo_reward	1	0	1	0	0	1	1			2
64	2	87	4	go_punish	1	0	-1	1	1	1	0	0.3449003999994602		2
64	2	88	1	nogo_punish	0	0	-1	0	1	0	0	0.8840403000067454		2
64	2	89	4	go_punish	1	0	-1	1	1	1	0	0.7568804000038654		2
64	2	90	3	nogo_reward	0	1	0	0	0	1	0			2
64	2	91	1	nogo_punish	0	0	-1	0	1	0	0	0.3892828000243753		2
64	2	92	4	go_punish	0	-1	0	1	1	1	-1	0.3142509000026621	0.0	2
64	2	93	1	nogo_punish	1	-1	0	0	1	0	-1	0.3722321999957785	0.0	2
64	2	94	3	nogo_reward	1	0	1	0	1	0	0	0.3466690000204835		2
64	2	95	3	nogo_reward	1	0	1	0	0	1	1			2
64	2	96	2	go_reward	0	0	1	1	1	1	0	0.2837221999943722		2
64	2	97	4	go_punish	1	0	-1	1	0	0	-1		0.0	2
64	2	98	2	go_reward	1	1	0	1	1	1	1	0.4245677999861073		2
64	2	99	1	nogo_punish	1	-1	0	0	1	0	-1	0.3465148999821395	0.0	2
64	2	100	1	nogo_punish	0	0	-1	0	1	0	0	0.380970400001388		2
64	2	101	4	go_punish	1	0	-1	1	1	1	0	0.0655308999994304		2
64	2	102	4	go_punish	0	-1	0	1	1	1	-1	0.2899252000206616	0.0	2
64	2	103	1	nogo_punish	0	0	-1	0	1	0	0	0.8509419999900274		2
64	2	104	4	go_punish	1	0	-1	1	1	1	0	0.522434999991674		2
64	2	105	2	go_reward	1	1	0	1	1	1	1	0.5801611999922898		2
64	2	106	1	nogo_punish	1	-1	0	0	1	0	-1	0.7155153000203427	0.0	2
64	2	107	2	go_reward	1	1	0	1	1	1	1	0.2869015999895055		2
64	2	108	2	go_reward	1	1	0	1	1	1	1	0.6653264999913517		2
64	2	109	2	go_reward	1	1	0	1	1	1	1	0.7271260999841616		2
64	2	110	3	nogo_reward	0	1	0	0	0	1	0			2
64	2	111	2	go_reward	1	1	0	1	1	1	1	0.3626020000083372		2
64	2	112	3	nogo_reward	1	0	1	0	0	1	1			2
64	2	113	1	nogo_punish	1	-1	0	0	0	1	0			2
64	2	114	2	go_reward	1	1	0	1	1	1	1	0.4468043000088073		2
64	2	115	1	nogo_punish	1	-1	0	0	1	0	-1	0.3186602999921888	0.0	2
64	2	116	1	nogo_punish	1	-1	0	0	1	0	-1	0.2621091000037268	0.0	2
64	2	117	3	nogo_reward	1	0	1	0	0	1	1			2
64	2	118	3	nogo_reward	0	1	0	0	0	1	0			2
64	2	119	3	nogo_reward	0	1	0	0	0	1	0			2
64	2	120	2	go_reward	1	1	0	1	0	0	0			2
64	3	121	3	nogo_reward	1	0	1	0	0	1	1			2
64	3	122	2	go_reward	1	1	0	1	0	0	0			2
64	3	123	2	go_reward	1	1	0	1	0	0	0			2
64	3	124	4	go_punish	0	-1	0	1	0	0	0			2
64	3	125	4	go_punish	1	0	-1	1	0	0	-1		1.0	2
64	3	126	1	nogo_punish	1	-1	0	0	0	1	0			2
64	3	127	2	go_reward	0	0	1	1	1	1	0	0.2893011000123806		2
64	3	128	4	go_punish	1	0	-1	1	1	1	0	0.2491118000179995		2
64	3	129	3	nogo_reward	1	0	1	0	0	1	1			2
64	3	130	3	nogo_reward	1	0	1	0	0	1	1			2
64	3	131	3	nogo_reward	1	0	1	0	0	1	1			2
64	3	132	4	go_punish	1	0	-1	1	1	1	0	0.3874187000037637		2
64	3	133	2	go_reward	1	1	0	1	0	0	0			2
64	3	134	3	nogo_reward	0	1	0	0	0	1	0			2
64	3	135	4	go_punish	1	0	-1	1	1	1	0	0.3399740000022575		2
64	3	136	2	go_reward	1	1	0	1	1	1	1	0.4132836999779101		2
64	3	137	4	go_punish	1	0	-1	1	1	1	0	0.2647995000006631		2
64	3	138	3	nogo_reward	1	0	1	0	0	1	1			2
64	3	139	3	nogo_reward	0	1	0	0	0	1	0			2
64	3	140	1	nogo_punish	1	-1	0	0	1	0	-1	0.3870989999850281	0.0	2
64	3	141	2	go_reward	1	1	0	1	1	1	1	0.3014355000050273		2
64	3	142	4	go_punish	1	0	-1	1	1	1	0	0.2975287000008393		2
64	3	143	3	nogo_reward	1	0	1	0	0	1	1			2
64	3	144	4	go_punish	0	-1	0	1	1	1	-1	0.2482880000025034	1.0	2
64	3	145	3	nogo_reward	1	0	1	0	0	1	1			2
64	3	146	4	go_punish	0	-1	0	1	0	0	0			2
64	3	147	3	nogo_reward	1	0	1	0	0	1	1			2
64	3	148	2	go_reward	1	1	0	1	1	1	1	0.2309488999890163		2
64	3	149	4	go_punish	1	0	-1	1	0	0	-1		0.0	2
64	3	150	1	nogo_punish	0	0	-1	0	1	0	0	0.7836828999861609		2
64	3	151	1	nogo_punish	1	-1	0	0	0	1	0			2
64	3	152	1	nogo_punish	1	-1	0	0	1	0	-1	0.6548218000098132	0.0	2
64	3	153	3	nogo_reward	1	0	1	0	0	1	1			2
64	3	154	1	nogo_punish	1	-1	0	0	0	1	0			2
64	3	155	2	go_reward	1	1	0	1	1	1	1	0.3335689000086859		2
64	3	156	4	go_punish	1	0	-1	1	0	0	-1		0.0	2
64	3	157	2	go_reward	1	1	0	1	1	1	1	0.3185815000033472		2
64	3	158	4	go_punish	1	0	-1	1	0	0	-1		0.0	2
64	3	159	1	nogo_punish	0	0	-1	0	1	0	0	0.4046358999912627		2
64	3	160	3	nogo_reward	0	1	0	0	0	1	0			2
64	3	161	1	nogo_punish	0	0	-1	0	1	0	0	0.2553254000085872		2
64	3	162	3	nogo_reward	0	1	0	0	0	1	0			2
64	3	163	3	nogo_reward	1	0	1	0	0	1	1			2
64	3	164	3	nogo_reward	0	1	0	0	0	1	0			2
64	3	165	2	go_reward	1	1	0	1	1	1	1	0.3908927000011317		2
64	3	166	1	nogo_punish	1	-1	0	0	1	0	-1	0.2858179999748245	0.0	2
64	3	167	2	go_reward	0	0	1	1	1	1	0	0.358790800004499		2
64	3	168	4	go_punish	0	-1	0	1	1	1	-1	0.9070054999901912	0.0	2
64	3	169	1	nogo_punish	1	-1	0	0	1	0	-1	0.3755300999910105	0.0	2
64	3	170	2	go_reward	0	0	1	1	1	1	0	0.2813847000070382		2
64	3	171	1	nogo_punish	0	0	-1	0	1	0	0	0.2775208999810275		2
64	3	172	1	nogo_punish	0	0	-1	0	1	0	0	0.5576083000050858		2
64	3	173	4	go_punish	1	0	-1	1	0	0	-1		0.0	2
64	3	174	2	go_reward	1	1	0	1	0	0	0			2
64	3	175	1	nogo_punish	1	-1	0	0	1	0	-1	0.2640934999799356	0.0	2
64	3	176	1	nogo_punish	1	-1	0	0	1	0	-1	0.5536057999997865	0.0	2
64	3	177	1	nogo_punish	1	-1	0	0	0	1	0			2
64	3	178	2	go_reward	1	1	0	1	1	1	1	0.2421524000237696		2
64	3	179	4	go_punish	0	-1	0	1	0	0	0			2
64	3	180	2	go_reward	1	1	0	1	1	1	1	0.4590393999824301		2
76	1	1	4	go_punish	1	0	-1	1	1	1	0	0.6096486999886109		2
76	1	2	3	nogo_reward	1	0	1	0	1	0	0	0.2002942000108305		2
76	1	3	2	go_reward	1	1	0	1	1	1	1	0.3725626000086777		2
76	1	4	4	go_punish	1	0	-1	1	1	1	0	0.4259530999988783		2
76	1	5	1	nogo_punish	1	-1	0	0	0	1	0			2
76	1	6	3	nogo_reward	1	0	1	0	0	1	1			2
76	1	7	1	nogo_punish	1	-1	0	0	0	1	0			2
76	1	8	3	nogo_reward	1	0	1	0	1	0	0	0.3731423999997787		2
76	1	9	3	nogo_reward	0	1	0	0	1	0	1	0.6181434000027366		2
76	1	10	2	go_reward	1	1	0	1	1	1	1	0.3996421999763697		2
76	1	11	2	go_reward	1	1	0	1	1	1	1	0.2571143999812193		2
76	1	12	1	nogo_punish	0	0	-1	0	0	1	-1		1.0	2
76	1	13	1	nogo_punish	1	-1	0	0	0	1	0			2
76	1	14	1	nogo_punish	0	0	-1	0	0	1	-1		0.0	2
76	1	15	3	nogo_reward	0	1	0	0	1	0	1	0.4094947000266984		2
76	1	16	3	nogo_reward	1	0	1	0	1	0	0	0.2697497000044677		2
76	1	17	4	go_punish	1	0	-1	1	1	1	0	0.6665275999985171		2
76	1	18	4	go_punish	1	0	-1	1	1	1	0	0.5800525999802629		2
76	1	19	2	go_reward	1	1	0	1	1	1	1	0.2716151000058744		2
76	1	20	1	nogo_punish	1	-1	0	0	0	1	0			2
76	1	21	2	go_reward	0	0	1	1	1	1	0	0.1231266000249888		2
76	1	22	1	nogo_punish	0	0	-1	0	0	1	-1		0.0	2
76	1	23	1	nogo_punish	0	0	-1	0	1	0	0	0.2108022999891545		2
76	1	24	3	nogo_reward	0	1	0	0	0	1	0			2
76	1	25	2	go_reward	1	1	0	1	1	1	1	0.077780999999959		2
76	1	26	4	go_punish	1	0	-1	1	0	0	-1		0.0	2
76	1	27	1	nogo_punish	1	-1	0	0	1	0	-1	0.1658354999963194	1.0	2
76	1	28	3	nogo_reward	1	0	1	0	1	0	0	0.4186970999871846		2
76	1	29	4	go_punish	1	0	-1	1	1	1	0	0.2514090999902692		2
76	1	30	1	nogo_punish	1	-1	0	0	0	1	0			2
76	1	31	4	go_punish	0	-1	0	1	1	1	-1	0.3678499000088777	0.0	2
76	1	32	3	nogo_reward	1	0	1	0	1	0	0	0.0350979999930132		2
76	1	33	2	go_reward	0	0	1	1	1	1	0	0.1041981999878771		2
76	1	34	4	go_punish	1	0	-1	1	1	1	0	0.2361587999912444		2
76	1	35	2	go_reward	1	1	0	1	1	1	1	0.2342881999793462		2
76	1	36	2	go_reward	0	0	1	1	1	1	0	0.2547530999872833		2
76	1	37	1	nogo_punish	1	-1	0	0	0	1	0			2
76	1	38	1	nogo_punish	1	-1	0	0	0	1	0			2
76	1	39	2	go_reward	1	1	0	1	1	1	1	0.2331426000164356		2
76	1	40	4	go_punish	1	0	-1	1	1	1	0	0.3274960000126157		2
76	1	41	2	go_reward	0	0	1	1	1	1	0	0.3026378999929875		2
76	1	42	2	go_reward	0	0	1	1	1	1	0	0.4782119000155944		2
76	1	43	3	nogo_reward	1	0	1	0	0	1	1			2
76	1	44	2	go_reward	1	1	0	1	1	1	1	0.1376271999906748		2
76	1	45	4	go_punish	1	0	-1	1	1	1	0	0.2651463999936823		2
76	1	46	4	go_punish	0	-1	0	1	1	1	-1	0.3306855000264477	0.0	2
76	1	47	4	go_punish	1	0	-1	1	1	1	0	0.1942183999926783		2
76	1	48	3	nogo_reward	0	1	0	0	0	1	0			2
76	1	49	2	go_reward	1	1	0	1	1	1	1	0.2771126999869011		2
76	1	50	4	go_punish	1	0	-1	1	1	1	0	0.273846299998695		2
76	1	51	2	go_reward	0	0	1	1	1	1	0	0.7227645000093617		2
76	1	52	3	nogo_reward	1	0	1	0	0	1	1			2
76	1	53	4	go_punish	1	0	-1	1	1	1	0	0.2770381000009365		2
76	1	54	3	nogo_reward	0	1	0	0	0	1	0			2
76	1	55	1	nogo_punish	0	0	-1	0	0	1	-1		0.0	2
76	1	56	4	go_punish	1	0	-1	1	0	0	-1		0.0	2
76	1	57	1	nogo_punish	1	-1	0	0	0	1	0			2
76	1	58	3	nogo_reward	1	0	1	0	0	1	1			2
76	1	59	3	nogo_reward	1	0	1	0	0	1	1			2
76	1	60	1	nogo_punish	1	-1	0	0	0	1	0			2
76	2	61	1	nogo_punish	1	-1	0	0	0	1	0			2
76	2	62	2	go_reward	1	1	0	1	1	1	1	0.2772248999972362		2
76	2	63	4	go_punish	0	-1	0	1	1	1	-1	0.6909631000016816	1.0	2
76	2	64	1	nogo_punish	1	-1	0	0	0	1	0			2
76	2	65	1	nogo_punish	1	-1	0	0	0	1	0			2
76	2	66	4	go_punish	1	0	-1	1	1	1	0	0.6940569999860601		2
76	2	67	3	nogo_reward	0	1	0	0	0	1	0			2
76	2	68	4	go_punish	1	0	-1	1	1	1	0	0.3338309999962803		2
76	2	69	2	go_reward	0	0	1	1	1	1	0	0.3165412000089418		2
76	2	70	3	nogo_reward	1	0	1	0	0	1	1			2
76	2	71	4	go_punish	1	0	-1	1	1	1	0	0.129897599981632		2
76	2	72	3	nogo_reward	1	0	1	0	0	1	1			2
76	2	73	2	go_reward	1	1	0	1	1	1	1	0.0467904999968595		2
76	2	74	4	go_punish	1	0	-1	1	1	1	0	0.2532339000026695		2
76	2	75	2	go_reward	1	1	0	1	1	1	1	0.2134234000113792		2
76	2	76	2	go_reward	0	0	1	1	1	1	0	0.5402190000168048		2
76	2	77	2	go_reward	0	0	1	1	1	1	0	0.091688399988925		2
76	2	78	1	nogo_punish	1	-1	0	0	0	1	0			2
76	2	79	4	go_punish	1	0	-1	1	1	1	0	0.0187315999937709		2
76	2	80	3	nogo_reward	1	0	1	0	0	1	1			2
76	2	81	2	go_reward	0	0	1	1	1	1	0	0.0830840999842621		2
76	2	82	3	nogo_reward	1	0	1	0	0	1	1			2
76	2	83	4	go_punish	0	-1	0	1	1	1	-1	0.3334286999888718	1.0	2
76	2	84	3	nogo_reward	1	0	1	0	0	1	1			2
76	2	85	4	go_punish	1	0	-1	1	1	1	0	0.2570294000033755		2
76	2	86	4	go_punish	0	-1	0	1	1	1	-1	0.0723270000016782	0.0	2
76	2	87	1	nogo_punish	0	0	-1	0	0	1	-1		0.0	2
76	2	88	1	nogo_punish	1	-1	0	0	0	1	0			2
76	2	89	1	nogo_punish	1	-1	0	0	0	1	0			2
76	2	90	2	go_reward	1	1	0	1	1	1	1	0.1100870000082068		2
76	2	91	2	go_reward	1	1	0	1	1	1	1	0.2422434999898541		2
76	2	92	2	go_reward	0	0	1	1	1	1	0	0.2108762999996543		2
76	2	93	3	nogo_reward	1	0	1	0	0	1	1			2
76	2	94	4	go_punish	1	0	-1	1	1	1	0	0.1113218999817036		2
76	2	95	4	go_punish	1	0	-1	1	1	1	0	0.1853230999840889		2
76	2	96	3	nogo_reward	1	0	1	0	0	1	1			2
76	2	97	3	nogo_reward	1	0	1	0	0	1	1			2
76	2	98	1	nogo_punish	1	-1	0	0	0	1	0			2
76	2	99	2	go_reward	1	1	0	1	1	1	1	0.7832876000029501		2
76	2	100	3	nogo_reward	1	0	1	0	0	1	1			2
76	2	101	4	go_punish	0	-1	0	1	1	1	-1	0.1017760000249836	0.0	2
76	2	102	2	go_reward	1	1	0	1	1	1	1	0.4146729999920353		2
76	2	103	2	go_reward	0	0	1	1	1	1	0	0.3173786000115797		2
76	2	104	3	nogo_reward	1	0	1	0	0	1	1			2
76	2	105	1	nogo_punish	0	0	-1	0	0	1	-1		0.0	2
76	2	106	2	go_reward	1	1	0	1	1	1	1	0.2533978999999817		2
76	2	107	1	nogo_punish	1	-1	0	0	0	1	0			2
76	2	108	3	nogo_reward	1	0	1	0	0	1	1			2
76	2	109	1	nogo_punish	0	0	-1	0	0	1	-1		0.0	2
76	2	110	1	nogo_punish	1	-1	0	0	0	1	0			2
76	2	111	4	go_punish	0	-1	0	1	1	1	-1	0.005781299987575	0.0	2
76	2	112	4	go_punish	1	0	-1	1	0	0	-1		1.0	2
76	2	113	3	nogo_reward	1	0	1	0	0	1	1			2
76	2	114	3	nogo_reward	0	1	0	0	0	1	0			2
76	2	115	1	nogo_punish	1	-1	0	0	0	1	0			2
76	2	116	1	nogo_punish	1	-1	0	0	0	1	0			2
76	2	117	2	go_reward	0	0	1	1	1	1	0	0.0014631999947596		2
76	2	118	1	nogo_punish	1	-1	0	0	0	1	0			2
76	2	119	4	go_punish	0	-1	0	1	1	1	-1	0.1516269999847281	0.0	2
76	2	120	3	nogo_reward	1	0	1	0	0	1	1			2
76	3	121	4	go_punish	1	0	-1	1	1	1	0	0.2758183000260033		2
76	3	122	2	go_reward	0	0	1	1	1	1	0	0.329566700005671		2
76	3	123	3	nogo_reward	1	0	1	0	0	1	1			2
76	3	124	3	nogo_reward	0	1	0	0	0	1	0			2
76	3	125	1	nogo_punish	1	-1	0	0	0	1	0			2
76	3	126	1	nogo_punish	1	-1	0	0	0	1	0			2
76	3	127	3	nogo_reward	1	0	1	0	0	1	1			2
76	3	128	4	go_punish	1	0	-1	1	1	1	0	0.0355179000180214		2
76	3	129	2	go_reward	1	1	0	1	1	1	1	0.6842272999929264		2
76	3	130	4	go_punish	1	0	-1	1	1	1	0	0.0652303000097163		2
76	3	131	2	go_reward	0	0	1	1	1	1	0	0.0537940000067465		2
76	3	132	4	go_punish	1	0	-1	1	1	1	0	0.8600298000092153		2
76	3	133	3	nogo_reward	1	0	1	0	0	1	1			2
76	3	134	3	nogo_reward	0	1	0	0	0	1	0			2
76	3	135	3	nogo_reward	1	0	1	0	0	1	1			2
76	3	136	3	nogo_reward	1	0	1	0	0	1	1			2
76	3	137	3	nogo_reward	1	0	1	0	0	1	1			2
76	3	138	1	nogo_punish	1	-1	0	0	0	1	0			2
76	3	139	1	nogo_punish	1	-1	0	0	0	1	0			2
76	3	140	4	go_punish	1	0	-1	1	1	1	0	0.2452634999935981		2
76	3	141	4	go_punish	1	0	-1	1	1	1	0	0.1031487000000197		2
76	3	142	1	nogo_punish	0	0	-1	0	0	1	-1		1.0	2
76	3	143	3	nogo_reward	1	0	1	0	0	1	1			2
76	3	144	1	nogo_punish	0	0	-1	0	0	1	-1		0.0	2
76	3	145	2	go_reward	0	0	1	1	1	1	0	0.096683200012194		2
76	3	146	3	nogo_reward	0	1	0	0	0	1	0			2
76	3	147	3	nogo_reward	1	0	1	0	0	1	1			2
76	3	148	2	go_reward	1	1	0	1	1	1	1	0.3015012000105344		2
76	3	149	1	nogo_punish	0	0	-1	0	0	1	-1		0.0	2
76	3	150	2	go_reward	1	1	0	1	1	1	1	0.1940892999991774		2
76	3	151	3	nogo_reward	0	1	0	0	0	1	0			2
76	3	152	3	nogo_reward	1	0	1	0	0	1	1			2
76	3	153	4	go_punish	1	0	-1	1	1	1	0	0.7335863000189421		2
76	3	154	1	nogo_punish	1	-1	0	0	0	1	0			2
76	3	155	4	go_punish	0	-1	0	1	1	1	-1	0.3017811000172514	0.0	2
76	3	156	3	nogo_reward	1	0	1	0	0	1	1			2
76	3	157	4	go_punish	1	0	-1	1	1	1	0	0.3026351000007708		2
76	3	158	4	go_punish	1	0	-1	1	1	1	0	0.2940115999954287		2
76	3	159	2	go_reward	1	1	0	1	1	1	1	0.1080933999910485		2
76	3	160	1	nogo_punish	0	0	-1	0	0	1	-1		0.0	2
76	3	161	2	go_reward	1	1	0	1	1	1	1	0.5967985000170302		2
76	3	162	4	go_punish	1	0	-1	1	1	1	0	0.8538869000039995		2
76	3	163	1	nogo_punish	0	0	-1	0	0	1	-1		1.0	2
76	3	164	2	go_reward	0	0	1	1	1	1	0	0.3987991000176408		2
76	3	165	2	go_reward	1	1	0	1	1	1	1	0.3324655000178609		2
76	3	166	2	go_reward	1	1	0	1	1	1	1	0.2951900000043679		2
76	3	167	4	go_punish	1	0	-1	1	1	1	0	0.4035105000075418		2
76	3	168	4	go_punish	1	0	-1	1	1	1	0	0.6533860999916214		2
76	3	169	1	nogo_punish	0	0	-1	0	1	0	0	0.6408113999932539		2
76	3	170	1	nogo_punish	0	0	-1	0	1	0	0	0.422813600016525		2
76	3	171	4	go_punish	1	0	-1	1	1	1	0	0.4632302999962121		2
76	3	172	1	nogo_punish	1	-1	0	0	1	0	-1	0.3767177999834529	1.0	2
76	3	173	2	go_reward	1	1	0	1	1	1	1	0.3329319000185933		2
76	3	174	1	nogo_punish	0	0	-1	0	0	1	-1		1.0	2
76	3	175	2	go_reward	1	1	0	1	1	1	1	0.3371766999771353		2
76	3	176	4	go_punish	1	0	-1	1	1	1	0	0.3706147999910172		2
76	3	177	2	go_reward	0	0	1	1	1	1	0	0.6677408000105061		2
76	3	178	3	nogo_reward	1	0	1	0	0	1	1			2
76	3	179	2	go_reward	1	1	0	1	1	1	1	0.2897629000071902		2
76	3	180	1	nogo_punish	1	-1	0	0	0	1	0			2
91	1	1	2	nogo_punish	0	0	-1	0	1	0	0	0.4632362000120338		2
91	1	2	2	nogo_punish	1	-1	0	0	1	0	-1	0.3679233999864664	1.0	2
91	1	3	4	nogo_reward	1	0	1	0	1	0	0	0.2911534000013489		2
91	1	4	4	nogo_reward	0	1	0	0	0	1	0			2
91	1	5	3	go_reward	1	1	0	1	1	1	1	0.2605836000002455		2
91	1	6	3	go_reward	1	1	0	1	0	0	0			2
91	1	7	4	nogo_reward	1	0	1	0	1	0	0	0.3623062999977265		2
91	1	8	4	nogo_reward	0	1	0	0	0	1	0			2
91	1	9	3	go_reward	0	0	1	1	1	1	0	0.2896758000133559		2
91	1	10	3	go_reward	1	1	0	1	0	0	0			2
91	1	11	1	go_punish	1	0	-1	1	1	1	0	0.0668133000144735		2
91	1	12	2	nogo_punish	0	0	-1	0	1	0	0	0.4509246999805328		2
91	1	13	1	go_punish	1	0	-1	1	1	1	0	0.6000620999839157		2
91	1	14	1	go_punish	0	-1	0	1	0	0	0			2
91	1	15	2	nogo_punish	0	0	-1	0	0	1	-1		0.0	2
91	1	16	2	nogo_punish	1	-1	0	0	1	0	-1	0.2821026000019629	1.0	2
91	1	17	1	go_punish	0	-1	0	1	1	1	-1	0.3210763999959454	0.0	2
91	1	18	3	go_reward	1	1	0	1	1	1	1	0.3767464999982621		2
91	1	19	2	nogo_punish	1	-1	0	0	1	0	-1	0.2666110999998636	1.0	2
91	1	20	2	nogo_punish	1	-1	0	0	0	1	0			2
91	1	21	2	nogo_punish	1	-1	0	0	0	1	0			2
91	1	22	2	nogo_punish	1	-1	0	0	0	1	0			2
91	1	23	3	go_reward	1	1	0	1	1	1	1	0.2974152999813668		2
91	1	24	4	nogo_reward	1	0	1	0	1	0	0	0.5364212999993471		2
91	1	25	4	nogo_reward	0	1	0	0	1	0	1	0.441670600004727		2
91	1	26	1	go_punish	0	-1	0	1	0	0	0			2
91	1	27	1	go_punish	1	0	-1	1	0	0	-1		0.0	2
91	1	28	3	go_reward	0	0	1	1	1	1	0	0.2314273999945726		2
91	1	29	2	nogo_punish	0	0	-1	0	0	1	-1		0.0	2
91	1	30	3	go_reward	1	1	0	1	1	1	1	0.2602557999780401		2
91	1	31	2	nogo_punish	1	-1	0	0	0	1	0			2
91	1	32	2	nogo_punish	1	-1	0	0	0	1	0			2
91	1	33	1	go_punish	1	0	-1	1	1	1	0	0.2722477999923285		2
91	1	34	3	go_reward	1	1	0	1	1	1	1	0.3347183000005316		2
91	1	35	3	go_reward	1	1	0	1	1	1	1	0.3036423000157811		2
91	1	36	3	go_reward	1	1	0	1	1	1	1	0.3812433999846689		2
91	1	37	3	go_reward	1	1	0	1	1	1	1	0.256995800009463		2
91	1	38	3	go_reward	0	0	1	1	1	1	0	0.3301440000068396		2
91	1	39	1	go_punish	1	0	-1	1	1	1	0	0.3037531000154558		2
91	1	40	1	go_punish	1	0	-1	1	0	0	-1		1.0	2
91	1	41	1	go_punish	0	-1	0	1	1	1	-1	0.2545165999908932	0.0	2
91	1	42	4	nogo_reward	1	0	1	0	1	0	0	0.2592391000071075		2
91	1	43	4	nogo_reward	1	0	1	0	1	0	0	0.3338096000079531		2
91	1	44	1	go_punish	0	-1	0	1	1	1	-1	0.2684041999746114	1.0	2
91	1	45	1	go_punish	1	0	-1	1	1	1	0	0.5461408999981359		2
91	1	46	1	go_punish	1	0	-1	1	1	1	0	0.3143746000132523		2
91	1	47	4	nogo_reward	1	0	1	0	1	0	0	0.3330847000179347		2
91	1	48	4	nogo_reward	1	0	1	0	1	0	0	0.2931067000026814		2
91	1	49	4	nogo_reward	0	1	0	0	1	0	1	0.3895617000234779		2
91	1	50	3	go_reward	1	1	0	1	1	1	1	0.2656153000134509		2
91	1	51	2	nogo_punish	1	-1	0	0	0	1	0			2
91	1	52	3	go_reward	1	1	0	1	1	1	1	0.4169074000092223		2
91	1	53	1	go_punish	1	0	-1	1	1	1	0	0.4811254000233021		2
91	1	54	4	nogo_reward	0	1	0	0	1	0	1	0.2511783999798354		2
91	1	55	4	nogo_reward	1	0	1	0	1	0	0	0.4851334000122733		2
91	1	56	2	nogo_punish	1	-1	0	0	0	1	0			2
91	1	57	4	nogo_reward	1	0	1	0	1	0	0	0.341920199978631		2
91	1	58	4	nogo_reward	1	0	1	0	1	0	0	0.4921262999996543		2
91	1	59	2	nogo_punish	0	0	-1	0	0	1	-1		1.0	2
91	1	60	1	go_punish	1	0	-1	1	1	1	0	0.2914684000134002		2
91	2	61	3	go_reward	1	1	0	1	1	1	1	0.4932281000073999		2
91	2	62	2	nogo_punish	1	-1	0	0	0	1	0			2
91	2	63	1	go_punish	1	0	-1	1	1	1	0	0.2498298999853432		2
91	2	64	3	go_reward	1	1	0	1	1	1	1	0.2468293999845628		2
91	2	65	3	go_reward	0	0	1	1	1	1	0	0.2671570999955293		2
91	2	66	2	nogo_punish	1	-1	0	0	0	1	0			2
91	2	67	3	go_reward	0	0	1	1	1	1	0	0.3555506000120658		2
91	2	68	3	go_reward	1	1	0	1	1	1	1	0.3129936000041198		2
91	2	69	4	nogo_reward	0	1	0	0	1	0	1	0.3851050999946892		2
91	2	70	2	nogo_punish	0	0	-1	0	0	1	-1		1.0	2
91	2	71	4	nogo_reward	1	0	1	0	1	0	0	0.2637377999781165		2
91	2	72	2	nogo_punish	1	-1	0	0	0	1	0			2
91	2	73	1	go_punish	1	0	-1	1	1	1	0	0.3900759000098333		2
91	2	74	3	go_reward	1	1	0	1	1	1	1	0.3600148000114132		2
91	2	75	4	nogo_reward	1	0	1	0	1	0	0	0.5205277999921236		2
91	2	76	4	nogo_reward	1	0	1	0	1	0	0	0.3448219999845605		2
91	2	77	2	nogo_punish	1	-1	0	0	0	1	0			2
91	2	78	1	go_punish	0	-1	0	1	1	1	-1	0.325801999977557	0.0	2
91	2	79	1	go_punish	1	0	-1	1	1	1	0	0.2695291000127327		2
91	2	80	4	nogo_reward	1	0	1	0	1	0	0	0.4019934999814722		2
91	2	81	3	go_reward	1	1	0	1	1	1	1	0.2868920000037178		2
91	2	82	1	go_punish	1	0	-1	1	1	1	0	0.2997912999999244		2
91	2	83	3	go_reward	1	1	0	1	1	1	1	0.4734255999792367		2
91	2	84	3	go_reward	1	1	0	1	1	1	1	0.1369493999809492		2
91	2	85	2	nogo_punish	1	-1	0	0	0	1	0			2
91	2	86	3	go_reward	1	1	0	1	1	1	1	0.4462112000037449		2
91	2	87	2	nogo_punish	0	0	-1	0	0	1	-1		0.0	2
91	2	88	2	nogo_punish	0	0	-1	0	0	1	-1		0.0	2
91	2	89	1	go_punish	1	0	-1	1	1	1	0	0.3502817999979015		2
91	2	90	3	go_reward	1	1	0	1	1	1	1	0.2907133999979123		2
91	2	91	1	go_punish	1	0	-1	1	1	1	0	0.6807643999927677		2
91	2	92	4	nogo_reward	1	0	1	0	1	0	0	0.6062875000061467		2
91	2	93	1	go_punish	1	0	-1	1	1	1	0	0.4679729000199586		2
91	2	94	2	nogo_punish	1	-1	0	0	0	1	0			2
91	2	95	2	nogo_punish	1	-1	0	0	0	1	0			2
91	2	96	4	nogo_reward	1	0	1	0	1	0	0	0.2477224000031128		2
91	2	97	3	go_reward	1	1	0	1	1	1	1	0.4039628999889828		2
91	2	98	3	go_reward	0	0	1	1	1	1	0	0.3270046999969054		2
91	2	99	1	go_punish	1	0	-1	1	1	1	0	0.4736747999850195		2
91	2	100	4	nogo_reward	0	1	0	0	1	0	1	0.0767693000088911		2
91	2	101	4	nogo_reward	1	0	1	0	1	0	0	0.3024196999904234		2
91	2	102	4	nogo_reward	1	0	1	0	1	0	0	0.3365759000007529		2
91	2	103	1	go_punish	0	-1	0	1	1	1	-1	0.35548870000639	1.0	2
91	2	104	2	nogo_punish	0	0	-1	0	0	1	-1		0.0	2
91	2	105	4	nogo_reward	1	0	1	0	1	0	0	0.3168676999921445		2
91	2	106	4	nogo_reward	0	1	0	0	1	0	1	0.3902944999863393		2
91	2	107	4	nogo_reward	0	1	0	0	1	0	1	0.4058334000001196		2
91	2	108	2	nogo_punish	1	-1	0	0	0	1	0			2
91	2	109	1	go_punish	1	0	-1	1	1	1	0	0.2836386999988463		2
91	2	110	2	nogo_punish	1	-1	0	0	0	1	0			2
91	2	111	2	nogo_punish	0	0	-1	0	0	1	-1		0.0	2
91	2	112	1	go_punish	1	0	-1	1	1	1	0	0.3707290999882389		2
91	2	113	3	go_reward	0	0	1	1	1	1	0	0.2989202000026125		2
91	2	114	2	nogo_punish	1	-1	0	0	0	1	0			2
91	2	115	4	nogo_reward	0	1	0	0	1	0	1	0.5528018000186421		2
91	2	116	1	go_punish	1	0	-1	1	1	1	0	0.3499900000169873		2
91	2	117	1	go_punish	0	-1	0	1	1	1	-1	0.2460376000090036	0.0	2
91	2	118	3	go_reward	1	1	0	1	1	1	1	0.4489233999920543		2
91	2	119	1	go_punish	1	0	-1	1	1	1	0	0.2731272999953944		2
91	2	120	4	nogo_reward	0	1	0	0	1	0	1	0.3064789000200108		2
91	3	121	2	nogo_punish	1	-1	0	0	0	1	0			2
91	3	122	1	go_punish	1	0	-1	1	1	1	0	0.3053911000024527		2
91	3	123	4	nogo_reward	1	0	1	0	1	0	0	0.3839273000194225		2
91	3	124	3	go_reward	1	1	0	1	1	1	1	0.2734476999903563		2
91	3	125	2	nogo_punish	0	0	-1	0	0	1	-1		1.0	2
91	3	126	2	nogo_punish	0	0	-1	0	0	1	-1		1.0	2
91	3	127	3	go_reward	1	1	0	1	1	1	1	0.2663521000067703		2
91	3	128	4	nogo_reward	1	0	1	0	1	0	0	0.5532929999753833		2
91	3	129	3	go_reward	1	1	0	1	1	1	1	0.2817561000119895		2
91	3	130	2	nogo_punish	0	0	-1	0	1	0	0	0.2280774000100791		2
91	3	131	2	nogo_punish	0	0	-1	0	0	1	-1		1.0	2
91	3	132	1	go_punish	1	0	-1	1	1	1	0	0.2640741999784949		2
91	3	133	3	go_reward	0	0	1	1	1	1	0	0.3753254000039305		2
91	3	134	1	go_punish	0	-1	0	1	1	1	-1	0.3486511000082828	1.0	2
91	3	135	3	go_reward	1	1	0	1	1	1	1	0.2394931000017095		2
91	3	136	4	nogo_reward	1	0	1	0	1	0	0	0.3154178000113461		2
91	3	137	4	nogo_reward	1	0	1	0	1	0	0	0.3585872999974526		2
91	3	138	4	nogo_reward	0	1	0	0	1	0	1	0.3683819000143558		2
91	3	139	4	nogo_reward	1	0	1	0	1	0	0	0.2867547999776434		2
91	3	140	3	go_reward	1	1	0	1	1	1	1	0.3969290000095498		2
91	3	141	1	go_punish	1	0	-1	1	1	1	0	0.5295149000012316		2
91	3	142	4	nogo_reward	0	1	0	0	1	0	1	0.2366999999794643		2
91	3	143	2	nogo_punish	1	-1	0	0	1	0	-1	0.1913877000042703	0.0	2
91	3	144	3	go_reward	1	1	0	1	1	1	1	0.2829231000214349		2
91	3	145	3	go_reward	1	1	0	1	1	1	1	0.3221890999993775		2
91	3	146	1	go_punish	1	0	-1	1	1	1	0	0.2935901000164449		2
91	3	147	4	nogo_reward	1	0	1	0	1	0	0	0.4503571999957785		2
91	3	148	1	go_punish	0	-1	0	1	0	0	0			2
91	3	149	1	go_punish	1	0	-1	1	0	0	-1		1.0	2
91	3	150	1	go_punish	1	0	-1	1	1	1	0	0.2679224000021349		2
91	3	151	3	go_reward	1	1	0	1	1	1	1	0.2641709000163246		2
91	3	152	4	nogo_reward	0	1	0	0	1	0	1	0.375635800010059		2
91	3	153	1	go_punish	1	0	-1	1	1	1	0	0.9828588999807836		2
91	3	154	1	go_punish	1	0	-1	1	1	1	0	0.2642049999849405		2
91	3	155	1	go_punish	1	0	-1	1	1	1	0	0.3547088000050279		2
91	3	156	1	go_punish	1	0	-1	1	1	1	0	0.2607303000113461		2
91	3	157	3	go_reward	1	1	0	1	1	1	1	0.2737190999905579		2
91	3	158	4	nogo_reward	1	0	1	0	1	0	0	0.4594087000004947		2
91	3	159	2	nogo_punish	0	0	-1	0	0	1	-1		0.0	2
91	3	160	4	nogo_reward	1	0	1	0	1	0	0	0.2184573999838903		2
91	3	161	2	nogo_punish	1	-1	0	0	0	1	0			2
91	3	162	3	go_reward	0	0	1	1	1	1	0	0.3447708000021521		2
91	3	163	2	nogo_punish	1	-1	0	0	0	1	0			2
91	3	164	1	go_punish	1	0	-1	1	1	1	0	0.3513917999807745		2
91	3	165	4	nogo_reward	1	0	1	0	1	0	0	0.3616066999966279		2
91	3	166	1	go_punish	1	0	-1	1	1	1	0	0.4650431000045501		2
91	3	167	3	go_reward	0	0	1	1	1	1	0	0.2800936000130605		2
91	3	168	2	nogo_punish	0	0	-1	0	0	1	-1		0.0	2
91	3	169	2	nogo_punish	0	0	-1	0	0	1	-1		0.0	2
91	3	170	2	nogo_punish	1	-1	0	0	0	1	0			2
91	3	171	3	go_reward	1	1	0	1	1	1	1	0.3159593000018503		2
91	3	172	4	nogo_reward	0	1	0	0	1	0	1	0.6386231000069529		2
91	3	173	2	nogo_punish	1	-1	0	0	0	1	0			2
91	3	174	2	nogo_punish	1	-1	0	0	0	1	0			2
91	3	175	3	go_reward	1	1	0	1	1	1	1	0.3769583000103012		2
91	3	176	1	go_punish	1	0	-1	1	1	1	0	0.2840411000070162		2
91	3	177	2	nogo_punish	1	-1	0	0	0	1	0			2
91	3	178	4	nogo_reward	1	0	1	0	1	0	0	0.3158286999969277		2
91	3	179	4	nogo_reward	0	1	0	0	1	0	1	0.3981278999999631		2
91	3	180	3	go_reward	0	0	1	1	1	1	0	0.4899923000193666		2
86	1	1	2	go_punish	1	0	-1	1	1	1	0	0.3402846000390127		2
86	1	2	3	nogo_punish	1	-1	0	0	1	0	-1	0.3029912000056356	1.0	2
86	1	3	4	go_reward	1	1	0	1	1	1	1	0.8737764999968931		2
86	1	4	4	go_reward	1	1	0	1	1	1	1	0.5737907999427989		2
86	1	5	3	nogo_punish	0	0	-1	0	0	1	-1		1.0	2
86	1	6	4	go_reward	1	1	0	1	1	1	1	0.2767974999733269		2
86	1	7	1	nogo_reward	0	1	0	0	1	0	1	0.6577739999629557		2
86	1	8	2	go_punish	0	-1	0	1	1	1	-1	0.4250261000124737	1.0	2
86	1	9	2	go_punish	0	-1	0	1	0	0	0			2
86	1	10	1	nogo_reward	0	1	0	0	1	0	1	0.4199967000167817		2
86	1	11	2	go_punish	0	-1	0	1	0	0	0			2
86	1	12	4	go_reward	1	1	0	1	1	1	1	0.407965200021863		2
86	1	13	4	go_reward	1	1	0	1	1	1	1	0.3195561999455094		2
86	1	14	3	nogo_punish	0	0	-1	0	1	0	0	0.4552883000578731		2
86	1	15	1	nogo_reward	0	1	0	0	1	0	1	0.5333032999187708		2
86	1	16	2	go_punish	1	0	-1	1	0	0	-1		0.0	2
86	1	17	2	go_punish	0	-1	0	1	0	0	0			2
86	1	18	3	nogo_punish	1	-1	0	0	1	0	-1	0.3377653000643477	0.0	2
86	1	19	3	nogo_punish	1	-1	0	0	0	1	0			2
86	1	20	2	go_punish	1	0	-1	1	0	0	-1		0.0	2
86	1	21	2	go_punish	1	0	-1	1	1	1	0	0.4417257000459358		2
86	1	22	3	nogo_punish	1	-1	0	0	1	0	-1	0.4072685999562964	0.0	2
86	1	23	1	nogo_reward	1	0	1	0	1	0	0	0.4648412000387907		2
86	1	24	4	go_reward	1	1	0	1	1	1	1	0.3222300000488758		2
86	1	25	3	nogo_punish	0	0	-1	0	0	1	-1		0.0	2
86	1	26	1	nogo_reward	0	1	0	0	1	0	1	0.3283091000048444		2
86	1	27	3	nogo_punish	0	0	-1	0	1	0	0	0.676920700003393		2
86	1	28	4	go_reward	1	1	0	1	0	0	0			2
86	1	29	1	nogo_reward	1	0	1	0	1	0	0	0.3386922000208869		2
86	1	30	1	nogo_reward	0	1	0	0	0	1	0			2
86	1	31	2	go_punish	1	0	-1	1	0	0	-1		1.0	2
86	1	32	1	nogo_reward	1	0	1	0	1	0	0	0.2720863999566063		2
86	1	33	1	nogo_reward	0	1	0	0	0	1	0			2
86	1	34	3	nogo_punish	0	0	-1	0	0	1	-1		1.0	2
86	1	35	4	go_reward	1	1	0	1	0	0	0			2
86	1	36	4	go_reward	1	1	0	1	1	1	1	0.3978058999637142		2
86	1	37	2	go_punish	1	0	-1	1	1	1	0	0.3066803000401705		2
86	1	38	3	nogo_punish	0	0	-1	0	1	0	0	0.3113918000599369		2
86	1	39	1	nogo_reward	1	0	1	0	0	1	1			2
86	1	40	1	nogo_reward	1	0	1	0	0	1	1			2
86	1	41	4	go_reward	1	1	0	1	1	1	1	0.2478367000585422		2
86	1	42	1	nogo_reward	1	0	1	0	0	1	1			2
86	1	43	2	go_punish	0	-1	0	1	1	1	-1	0.3183692999882624	1.0	2
86	1	44	3	nogo_punish	1	-1	0	0	1	0	-1	0.4001391999190673	1.0	2
86	1	45	1	nogo_reward	1	0	1	0	0	1	1			2
86	1	46	2	go_punish	1	0	-1	1	0	0	-1		1.0	2
86	1	47	4	go_reward	1	1	0	1	1	1	1	0.3990762999746949		2
86	1	48	2	go_punish	1	0	-1	1	1	1	0	0.4506430000765249		2
86	1	49	4	go_reward	1	1	0	1	1	1	1	0.4755871000234038		2
86	1	50	1	nogo_reward	1	0	1	0	0	1	1			2
86	1	51	4	go_reward	1	1	0	1	1	1	1	0.4044485000194981		2
86	1	52	4	go_reward	1	1	0	1	1	1	1	0.3086516000330448		2
86	1	53	1	nogo_reward	1	0	1	0	0	1	1			2
86	1	54	2	go_punish	1	0	-1	1	1	1	0	0.3308988000499085		2
86	1	55	3	nogo_punish	1	-1	0	0	0	1	0			2
86	1	56	3	nogo_punish	1	-1	0	0	0	1	0			2
86	1	57	2	go_punish	1	0	-1	1	1	1	0	0.4049214000115171		2
86	1	58	3	nogo_punish	1	-1	0	0	0	1	0			2
86	1	59	4	go_reward	1	1	0	1	1	1	1	0.3641614000080153		2
86	1	60	3	nogo_punish	0	0	-1	0	0	1	-1		1.0	2
86	2	61	1	nogo_reward	1	0	1	0	0	1	1			2
86	2	62	4	go_reward	1	1	0	1	1	1	1	0.2898679999634623		2
86	2	63	4	go_reward	0	0	1	1	1	1	0	0.5428510999772698		2
86	2	64	4	go_reward	1	1	0	1	0	0	0			2
86	2	65	4	go_reward	1	1	0	1	1	1	1	0.3252456999616697		2
86	2	66	2	go_punish	1	0	-1	1	1	1	0	0.403863999992609		2
86	2	67	4	go_reward	1	1	0	1	1	1	1	0.2273579000029713		2
86	2	68	3	nogo_punish	1	-1	0	0	1	0	-1	0.2838762999745086	1.0	2
86	2	69	3	nogo_punish	0	0	-1	0	0	1	-1		1.0	2
86	2	70	4	go_reward	1	1	0	1	1	1	1	0.2979593999916688		2
86	2	71	1	nogo_reward	0	1	0	0	0	1	0			2
86	2	72	4	go_reward	1	1	0	1	1	1	1	0.3365219000261277		2
86	2	73	3	nogo_punish	1	-1	0	0	1	0	-1	0.3071498000063002	1.0	2
86	2	74	3	nogo_punish	1	-1	0	0	0	1	0			2
86	2	75	1	nogo_reward	0	1	0	0	1	0	1	0.3568005000706762		2
86	2	76	2	go_punish	1	0	-1	1	1	1	0	0.4187466000439599		2
86	2	77	2	go_punish	1	0	-1	1	1	1	0	0.3188745999941602		2
86	2	78	3	nogo_punish	1	-1	0	0	0	1	0			2
86	2	79	2	go_punish	1	0	-1	1	1	1	0	0.4946431999560446		2
86	2	80	2	go_punish	1	0	-1	1	1	1	0	0.3483470000792295		2
86	2	81	1	nogo_reward	1	0	1	0	1	0	0	0.3778973000589758		2
86	2	82	4	go_reward	0	0	1	1	1	1	0	0.3538401999976486		2
86	2	83	3	nogo_punish	1	-1	0	0	0	1	0			2
86	2	84	3	nogo_punish	1	-1	0	0	0	1	0			2
86	2	85	1	nogo_reward	1	0	1	0	0	1	1			2
86	2	86	1	nogo_reward	1	0	1	0	0	1	1			2
86	2	87	1	nogo_reward	1	0	1	0	0	1	1			2
86	2	88	2	go_punish	0	-1	0	1	1	1	-1	0.363430600031279	0.0	2
86	2	89	1	nogo_reward	0	1	0	0	0	1	0			2
86	2	90	1	nogo_reward	1	0	1	0	1	0	0	0.3651651000836864		2
86	2	91	1	nogo_reward	0	1	0	0	0	1	0			2
86	2	92	4	go_reward	0	0	1	1	0	0	1			2
86	2	93	2	go_punish	0	-1	0	1	0	0	0			2
86	2	94	4	go_reward	1	1	0	1	0	0	0			2
86	2	95	2	go_punish	1	0	-1	1	0	0	-1		0.0	2
86	2	96	4	go_reward	0	0	1	1	1	1	0	0.2797708000289276		2
86	2	97	3	nogo_punish	1	-1	0	0	0	1	0			2
86	2	98	1	nogo_reward	1	0	1	0	1	0	0	0.2292140000499785		2
86	2	99	3	nogo_punish	1	-1	0	0	0	1	0			2
86	2	100	4	go_reward	0	0	1	1	0	0	1			2
86	2	101	3	nogo_punish	0	0	-1	0	0	1	-1		0.0	2
86	2	102	3	nogo_punish	0	0	-1	0	1	0	0	0.4037609999068081		2
86	2	103	3	nogo_punish	1	-1	0	0	1	0	-1	0.2890225000446662	0.0	2
86	2	104	1	nogo_reward	1	0	1	0	0	1	1			2
86	2	105	4	go_reward	1	1	0	1	0	0	0			2
86	2	106	2	go_punish	0	-1	0	1	1	1	-1	0.2997218000236899	1.0	2
86	2	107	3	nogo_punish	0	0	-1	0	0	1	-1		0.0	2
86	2	108	1	nogo_reward	1	0	1	0	0	1	1			2
86	2	109	2	go_punish	1	0	-1	1	0	0	-1		0.0	2
86	2	110	2	go_punish	1	0	-1	1	1	1	0	0.3627820999827236		2
86	2	111	4	go_reward	1	1	0	1	1	1	1	0.4036150999600068		2
86	2	112	2	go_punish	1	0	-1	1	1	1	0	0.5308349999831989		2
86	2	113	2	go_punish	1	0	-1	1	1	1	0	0.3852010999107733		2
86	2	114	3	nogo_punish	1	-1	0	0	1	0	-1	0.5014207999920473	0.0	2
86	2	115	1	nogo_reward	1	0	1	0	0	1	1			2
86	2	116	2	go_punish	1	0	-1	1	1	1	0	0.4078065999783576		2
86	2	117	3	nogo_punish	0	0	-1	0	0	1	-1		1.0	2
86	2	118	4	go_reward	1	1	0	1	1	1	1	0.3238224999513477		2
86	2	119	2	go_punish	0	-1	0	1	0	0	0			2
86	2	120	1	nogo_reward	1	0	1	0	0	1	1			2
86	3	121	1	nogo_reward	1	0	1	0	0	1	1			2
86	3	122	2	go_punish	0	-1	0	1	0	0	0			2
86	3	123	4	go_reward	1	1	0	1	1	1	1	0.3857040000148117		2
86	3	124	3	nogo_punish	1	-1	0	0	1	0	-1	0.2636480000801384	1.0	2
86	3	125	3	nogo_punish	0	0	-1	0	0	1	-1		0.0	2
86	3	126	3	nogo_punish	1	-1	0	0	1	0	-1	0.2584071001037955	0.0	2
86	3	127	3	nogo_punish	1	-1	0	0	1	0	-1	0.3545762000139803	0.0	2
86	3	128	2	go_punish	1	0	-1	1	0	0	-1		0.0	2
86	3	129	1	nogo_reward	1	0	1	0	0	1	1			2
86	3	130	2	go_punish	1	0	-1	1	0	0	-1		0.0	2
86	3	131	1	nogo_reward	1	0	1	0	0	1	1			2
86	3	132	2	go_punish	1	0	-1	1	1	1	0	0.6187801000196487		2
86	3	133	4	go_reward	1	1	0	1	1	1	1	0.330908199888654		2
86	3	134	3	nogo_punish	1	-1	0	0	1	0	-1	0.2928036000812426	1.0	2
86	3	135	2	go_punish	1	0	-1	1	1	1	0	0.2598182000219822		2
86	3	136	1	nogo_reward	0	1	0	0	0	1	0			2
86	3	137	3	nogo_punish	1	-1	0	0	0	1	0			2
86	3	138	1	nogo_reward	1	0	1	0	0	1	1			2
86	3	139	2	go_punish	1	0	-1	1	1	1	0	0.3793533000862226		2
86	3	140	4	go_reward	1	1	0	1	1	1	1	0.2617205999558791		2
86	3	141	1	nogo_reward	1	0	1	0	0	1	1			2
86	3	142	4	go_reward	0	0	1	1	1	1	0	0.4487895999336615		2
86	3	143	2	go_punish	1	0	-1	1	1	1	0	0.3526244999375194		2
86	3	144	2	go_punish	1	0	-1	1	1	1	0	0.4188040000153705		2
86	3	145	3	nogo_punish	1	-1	0	0	0	1	0			2
86	3	146	2	go_punish	1	0	-1	1	1	1	0	0.3403546999907121		2
86	3	147	4	go_reward	0	0	1	1	0	0	1			2
86	3	148	1	nogo_reward	1	0	1	0	0	1	1			2
86	3	149	3	nogo_punish	1	-1	0	0	0	1	0			2
86	3	150	1	nogo_reward	0	1	0	0	0	1	0			2
86	3	151	4	go_reward	0	0	1	1	0	0	1			2
86	3	152	2	go_punish	0	-1	0	1	1	1	-1	0.3513535000383854	1.0	2
86	3	153	1	nogo_reward	1	0	1	0	1	0	0	0.3531271000392735		2
86	3	154	1	nogo_reward	0	1	0	0	0	1	0			2
86	3	155	3	nogo_punish	0	0	-1	0	0	1	-1		0.0	2
86	3	156	1	nogo_reward	1	0	1	0	1	0	0	0.3443165000062436		2
86	3	157	3	nogo_punish	1	-1	0	0	1	0	-1	0.3841938999248669	1.0	2
86	3	158	2	go_punish	0	-1	0	1	1	1	-1	0.7668218000326306	0.0	2
86	3	159	1	nogo_reward	1	0	1	0	0	1	1			2
86	3	160	4	go_reward	0	0	1	1	0	0	1			2
86	3	161	4	go_reward	1	1	0	1	0	0	0			2
86	3	162	2	go_punish	1	0	-1	1	0	0	-1		0.0	2
86	3	163	3	nogo_punish	1	-1	0	0	0	1	0			2
86	3	164	1	nogo_reward	1	0	1	0	0	1	1			2
86	3	165	4	go_reward	1	1	0	1	1	1	1	0.2714585999492556		2
86	3	166	3	nogo_punish	1	-1	0	0	0	1	0			2
86	3	167	4	go_reward	0	0	1	1	1	1	0	0.3751628999598324		2
86	3	168	4	go_reward	0	0	1	1	1	1	0	0.2789490999421105		2
86	3	169	4	go_reward	1	1	0	1	1	1	1	0.5171612000558525		2
86	3	170	4	go_reward	1	1	0	1	0	0	0			2
86	3	171	3	nogo_punish	0	0	-1	0	0	1	-1		1.0	2
86	3	172	3	nogo_punish	1	-1	0	0	1	0	-1	0.2613374000648037	1.0	2
86	3	173	1	nogo_reward	1	0	1	0	0	1	1			2
86	3	174	2	go_punish	0	-1	0	1	1	1	-1	0.2390890999231487	0.0	2
86	3	175	2	go_punish	1	0	-1	1	0	0	-1		0.0	2
86	3	176	1	nogo_reward	1	0	1	0	1	0	0	0.3962271999334917		2
86	3	177	3	nogo_punish	1	-1	0	0	0	1	0			2
86	3	178	4	go_reward	1	1	0	1	0	0	0			2
86	3	179	4	go_reward	0	0	1	1	0	0	1			2
86	3	180	2	go_punish	0	-1	0	1	0	0	0			2
59	1	1	3	go_reward	1	1	0	1	0	0	0			2
59	1	2	1	go_punish	1	0	-1	1	0	0	-1		1.0	2
59	1	3	3	go_reward	1	1	0	1	1	1	1	0.478335399995558		2
59	1	4	1	go_punish	0	-1	0	1	1	1	-1	0.324150299973553	0.0	2
59	1	5	3	go_reward	1	1	0	1	1	1	1	0.8253017999813892		2
59	1	6	2	nogo_punish	1	-1	0	0	1	0	-1	0.2690555999870412	0.0	2
59	1	7	4	nogo_reward	0	1	0	0	1	0	1	0.3221848999965005		2
59	1	8	4	nogo_reward	1	0	1	0	1	0	0	0.530073200003244		2
59	1	9	2	nogo_punish	1	-1	0	0	1	0	-1	0.3385553999978583	0.0	2
59	1	10	4	nogo_reward	0	1	0	0	1	0	1	0.2932696000207215		2
59	1	11	3	go_reward	1	1	0	1	1	1	1	0.2859246000007261		2
59	1	12	3	go_reward	0	0	1	1	1	1	0	0.3978830000269227		2
59	1	13	3	go_reward	1	1	0	1	1	1	1	0.5275149999943096		2
59	1	14	2	nogo_punish	0	0	-1	0	1	0	0	0.2974728000117466		2
59	1	15	3	go_reward	1	1	0	1	1	1	1	0.7434171999921091		2
59	1	16	1	go_punish	1	0	-1	1	0	0	-1		1.0	2
59	1	17	2	nogo_punish	0	0	-1	0	1	0	0	0.309806999983266		2
59	1	18	1	go_punish	1	0	-1	1	1	1	0	0.4040398999932222		2
59	1	19	1	go_punish	1	0	-1	1	0	0	-1		0.0	2
59	1	20	3	go_reward	1	1	0	1	1	1	1	0.3421921999834012		2
59	1	21	4	nogo_reward	1	0	1	0	1	0	0	0.3670900000142865		2
59	1	22	4	nogo_reward	1	0	1	0	1	0	0	0.5294082000036724		2
59	1	23	4	nogo_reward	1	0	1	0	0	1	1			2
59	1	24	1	go_punish	0	-1	0	1	0	0	0			2
59	1	25	1	go_punish	0	-1	0	1	0	0	0			2
59	1	26	1	go_punish	1	0	-1	1	1	1	0	0.7318383999809157		2
59	1	27	2	nogo_punish	0	0	-1	0	1	0	0	0.5635989000147674		2
59	1	28	4	nogo_reward	1	0	1	0	1	0	0	0.5060888000007253		2
59	1	29	3	go_reward	1	1	0	1	0	0	0			2
59	1	30	4	nogo_reward	0	1	0	0	0	1	0			2
59	1	31	2	nogo_punish	1	-1	0	0	1	0	-1	0.5253224000043701	1.0	2
59	1	32	3	go_reward	0	0	1	1	0	0	1			2
59	1	33	2	nogo_punish	1	-1	0	0	1	0	-1	0.5380358000111299	0.0	2
59	1	34	3	go_reward	1	1	0	1	0	0	0			2
59	1	35	1	go_punish	0	-1	0	1	0	0	0			2
59	1	36	3	go_reward	1	1	0	1	0	0	0			2
59	1	37	4	nogo_reward	1	0	1	0	0	1	1			2
59	1	38	2	nogo_punish	1	-1	0	0	1	0	-1	0.4278455000021495	1.0	2
59	1	39	1	go_punish	1	0	-1	1	1	1	0	0.7578410000132862		2
59	1	40	4	nogo_reward	1	0	1	0	0	1	1			2
59	1	41	2	nogo_punish	1	-1	0	0	1	0	-1	0.4268520000041463	0.0	2
59	1	42	3	go_reward	1	1	0	1	0	0	0			2
59	1	43	2	nogo_punish	1	-1	0	0	1	0	-1	0.5869310999987647	1.0	2
59	1	44	1	go_punish	0	-1	0	1	0	0	0			2
59	1	45	4	nogo_reward	0	1	0	0	0	1	0			2
59	1	46	2	nogo_punish	0	0	-1	0	0	1	-1		1.0	2
59	1	47	3	go_reward	0	0	1	1	0	0	1			2
59	1	48	1	go_punish	0	-1	0	1	0	0	0			2
59	1	49	2	nogo_punish	1	-1	0	0	0	1	0			2
59	1	50	4	nogo_reward	1	0	1	0	0	1	1			2
59	1	51	2	nogo_punish	1	-1	0	0	0	1	0			2
59	1	52	4	nogo_reward	1	0	1	0	0	1	1			2
59	1	53	2	nogo_punish	1	-1	0	0	0	1	0			2
59	1	54	4	nogo_reward	1	0	1	0	0	1	1			2
59	1	55	1	go_punish	1	0	-1	1	0	0	-1		0.0	2
59	1	56	1	go_punish	1	0	-1	1	1	1	0	0.5898385999898892		2
59	1	57	1	go_punish	0	-1	0	1	0	0	0			2
59	1	58	4	nogo_reward	1	0	1	0	0	1	1			2
59	1	59	2	nogo_punish	1	-1	0	0	0	1	0			2
59	1	60	3	go_reward	1	1	0	1	0	0	0			2
59	2	61	4	nogo_reward	1	0	1	0	0	1	1			2
59	2	62	2	nogo_punish	0	0	-1	0	0	1	-1		1.0	2
59	2	63	2	nogo_punish	0	0	-1	0	1	0	0	0.3563587999960873		2
59	2	64	4	nogo_reward	1	0	1	0	0	1	1			2
59	2	65	2	nogo_punish	1	-1	0	0	0	1	0			2
59	2	66	3	go_reward	1	1	0	1	0	0	0			2
59	2	67	4	nogo_reward	1	0	1	0	0	1	1			2
59	2	68	1	go_punish	1	0	-1	1	1	1	0	0.3155128999787848		2
59	2	69	2	nogo_punish	1	-1	0	0	1	0	-1	0.8127225000062026	0.0	2
59	2	70	2	nogo_punish	1	-1	0	0	1	0	-1	0.649003200000152	0.0	2
59	2	71	3	go_reward	1	1	0	1	0	0	0			2
59	2	72	2	nogo_punish	1	-1	0	0	0	1	0			2
59	2	73	4	nogo_reward	1	0	1	0	0	1	1			2
59	2	74	2	nogo_punish	0	0	-1	0	1	0	0	0.6150063999812119		2
59	2	75	4	nogo_reward	1	0	1	0	0	1	1			2
59	2	76	1	go_punish	1	0	-1	1	1	1	0	0.2896838000160642		2
59	2	77	3	go_reward	0	0	1	1	0	0	1			2
59	2	78	2	nogo_punish	0	0	-1	0	0	1	-1		0.0	2
59	2	79	2	nogo_punish	1	-1	0	0	1	0	-1	0.5405198999796994	0.0	2
59	2	80	3	go_reward	0	0	1	1	0	0	1			2
59	2	81	4	nogo_reward	0	1	0	0	0	1	0			2
59	2	82	3	go_reward	1	1	0	1	0	0	0			2
59	2	83	1	go_punish	0	-1	0	1	0	0	0			2
59	2	84	1	go_punish	0	-1	0	1	0	0	0			2
59	2	85	1	go_punish	1	0	-1	1	1	1	0	0.4026747999887448		2
59	2	86	4	nogo_reward	1	0	1	0	0	1	1			2
59	2	87	3	go_reward	1	1	0	1	0	0	0			2
59	2	88	1	go_punish	1	0	-1	1	1	1	0	0.5988490000017919		2
59	2	89	4	nogo_reward	1	0	1	0	0	1	1			2
59	2	90	2	nogo_punish	0	0	-1	0	0	1	-1		0.0	2
59	2	91	4	nogo_reward	1	0	1	0	0	1	1			2
59	2	92	2	nogo_punish	0	0	-1	0	0	1	-1		0.0	2
59	2	93	1	go_punish	1	0	-1	1	0	0	-1		1.0	2
59	2	94	3	go_reward	1	1	0	1	0	0	0			2
59	2	95	3	go_reward	0	0	1	1	1	1	0	0.6871655999857467		2
59	2	96	3	go_reward	1	1	0	1	0	0	0			2
59	2	97	2	nogo_punish	1	-1	0	0	0	1	0			2
59	2	98	1	go_punish	0	-1	0	1	1	1	-1	0.2838329000223893	1.0	2
59	2	99	3	go_reward	1	1	0	1	0	0	0			2
59	2	100	4	nogo_reward	1	0	1	0	0	1	1			2
59	2	101	1	go_punish	1	0	-1	1	0	0	-1		0.0	2
59	2	102	2	nogo_punish	1	-1	0	0	0	1	0			2
59	2	103	1	go_punish	1	0	-1	1	1	1	0	0.2740708999917842		2
59	2	104	3	go_reward	0	0	1	1	0	0	1			2
59	2	105	4	nogo_reward	0	1	0	0	1	0	1	0.482689800002845		2
59	2	106	1	go_punish	1	0	-1	1	0	0	-1		0.0	2
59	2	107	4	nogo_reward	1	0	1	0	0	1	1			2
59	2	108	3	go_reward	0	0	1	1	0	0	1			2
59	2	109	4	nogo_reward	1	0	1	0	0	1	1			2
59	2	110	3	go_reward	1	1	0	1	0	0	0			2
59	2	111	4	nogo_reward	0	1	0	0	0	1	0			2
59	2	112	1	go_punish	1	0	-1	1	0	0	-1		1.0	2
59	2	113	3	go_reward	1	1	0	1	0	0	0			2
59	2	114	4	nogo_reward	1	0	1	0	0	1	1			2
59	2	115	2	nogo_punish	1	-1	0	0	0	1	0			2
59	2	116	1	go_punish	1	0	-1	1	1	1	0	0.3874942999973428		2
59	2	117	1	go_punish	1	0	-1	1	1	1	0	0.6266430999967271		2
59	2	118	3	go_reward	0	0	1	1	0	0	1			2
59	2	119	2	nogo_punish	1	-1	0	0	1	0	-1	0.3763546000118368	0.0	2
59	2	120	1	go_punish	1	0	-1	1	1	1	0	0.4219364000018686		2
59	3	121	1	go_punish	0	-1	0	1	1	1	-1	0.3696828999964055	1.0	2
59	3	122	2	nogo_punish	1	-1	0	0	1	0	-1	0.5326113000046462	1.0	2
59	3	123	4	nogo_reward	1	0	1	0	0	1	1			2
59	3	124	4	nogo_reward	0	1	0	0	0	1	0			2
59	3	125	2	nogo_punish	1	-1	0	0	0	1	0			2
59	3	126	1	go_punish	0	-1	0	1	0	0	0			2
59	3	127	1	go_punish	1	0	-1	1	0	0	-1		1.0	2
59	3	128	1	go_punish	0	-1	0	1	0	0	0			2
59	3	129	3	go_reward	1	1	0	1	1	1	1	0.3554971999838017		2
59	3	130	2	nogo_punish	1	-1	0	0	0	1	0			2
59	3	131	4	nogo_reward	1	0	1	0	0	1	1			2
59	3	132	2	nogo_punish	1	-1	0	0	0	1	0			2
59	3	133	4	nogo_reward	1	0	1	0	0	1	1			2
59	3	134	2	nogo_punish	1	-1	0	0	0	1	0			2
59	3	135	4	nogo_reward	1	0	1	0	0	1	1			2
59	3	136	1	go_punish	1	0	-1	1	0	0	-1		0.0	2
59	3	137	1	go_punish	0	-1	0	1	0	0	0			2
59	3	138	2	nogo_punish	0	0	-1	0	0	1	-1		0.0	2
59	3	139	3	go_reward	0	0	1	1	1	1	0	0.3117749000084586		2
59	3	140	1	go_punish	1	0	-1	1	0	0	-1		0.0	2
59	3	141	1	go_punish	1	0	-1	1	1	1	0	0.4915814999840222		2
59	3	142	2	nogo_punish	1	-1	0	0	0	1	0			2
59	3	143	4	nogo_reward	1	0	1	0	0	1	1			2
59	3	144	4	nogo_reward	0	1	0	0	0	1	0			2
59	3	145	3	go_reward	1	1	0	1	1	1	1	0.7004589000134729		2
59	3	146	1	go_punish	1	0	-1	1	1	1	0	0.9121952000132296		2
59	3	147	3	go_reward	0	0	1	1	1	1	0	0.9990443999995476		2
59	3	148	4	nogo_reward	1	0	1	0	0	1	1			2
59	3	149	3	go_reward	1	1	0	1	0	0	0			2
59	3	150	3	go_reward	1	1	0	1	0	0	0			2
59	3	151	4	nogo_reward	1	0	1	0	0	1	1			2
59	3	152	1	go_punish	1	0	-1	1	1	1	0	0.450878500007093		2
59	3	153	2	nogo_punish	0	0	-1	0	0	1	-1		1.0	2
59	3	154	3	go_reward	1	1	0	1	1	1	1	0.7341039000020828		2
59	3	155	2	nogo_punish	1	-1	0	0	0	1	0			2
59	3	156	1	go_punish	1	0	-1	1	1	1	0	0.3704098000016529		2
59	3	157	2	nogo_punish	0	0	-1	0	0	1	-1		0.0	2
59	3	158	4	nogo_reward	1	0	1	0	0	1	1			2
59	3	159	3	go_reward	1	1	0	1	0	0	0			2
59	3	160	3	go_reward	1	1	0	1	1	1	1	0.3583519000094384		2
59	3	161	4	nogo_reward	1	0	1	0	0	1	1			2
59	3	162	4	nogo_reward	1	0	1	0	0	1	1			2
59	3	163	2	nogo_punish	0	0	-1	0	1	0	0	0.55916000000434		2
59	3	164	3	go_reward	0	0	1	1	0	0	1			2
59	3	165	1	go_punish	1	0	-1	1	1	1	0	0.2675323000003118		2
59	3	166	3	go_reward	1	1	0	1	1	1	1	0.5103202000027522		2
59	3	167	3	go_reward	1	1	0	1	0	0	0			2
59	3	168	4	nogo_reward	1	0	1	0	0	1	1			2
59	3	169	3	go_reward	1	1	0	1	0	0	0			2
59	3	170	1	go_punish	0	-1	0	1	0	0	0			2
59	3	171	3	go_reward	0	0	1	1	0	0	1			2
59	3	172	1	go_punish	1	0	-1	1	1	1	0	0.0710427000012714		2
59	3	173	4	nogo_reward	1	0	1	0	0	1	1			2
59	3	174	2	nogo_punish	0	0	-1	0	0	1	-1		0.0	2
59	3	175	3	go_reward	1	1	0	1	1	1	1	0.40005550000933		2
59	3	176	2	nogo_punish	0	0	-1	0	0	1	-1		0.0	2
59	3	177	2	nogo_punish	1	-1	0	0	1	0	-1	0.3467937000095844	0.0	2
59	3	178	2	nogo_punish	1	-1	0	0	0	1	0			2
59	3	179	1	go_punish	0	-1	0	1	1	1	-1	0.7839124000165612	0.0	2
59	3	180	4	nogo_reward	1	0	1	0	0	1	1			2
105	1	1	2	nogo_reward	1	0	1	0	1	0	0	0.3329481000546366		2
105	1	2	4	nogo_punish	1	-1	0	0	1	0	-1	0.6396948001347482	1.0	2
105	1	3	1	go_reward	1	1	0	1	1	1	1	0.3402784001082182		2
105	1	4	1	go_reward	1	1	0	1	0	0	0			2
105	1	5	2	nogo_reward	1	0	1	0	0	1	1			2
105	1	6	4	nogo_punish	0	0	-1	0	1	0	0	0.8118046999443322		2
105	1	7	3	go_punish	1	0	-1	1	1	1	0	0.3046719999983907		2
105	1	8	3	go_punish	0	-1	0	1	0	0	0			2
105	1	9	4	nogo_punish	1	-1	0	0	0	1	0			2
105	1	10	1	go_reward	1	1	0	1	1	1	1	0.4214569998439401		2
105	1	11	1	go_reward	1	1	0	1	1	1	1	0.4869862999767065		2
105	1	12	3	go_punish	1	0	-1	1	1	1	0	0.3493087999522686		2
105	1	13	2	nogo_reward	0	1	0	0	0	1	0			2
105	1	14	1	go_reward	0	0	1	1	1	1	0	0.3187613999471068		2
105	1	15	3	go_punish	0	-1	0	1	0	0	0			2
105	1	16	2	nogo_reward	1	0	1	0	0	1	1			2
105	1	17	2	nogo_reward	1	0	1	0	0	1	1			2
105	1	18	1	go_reward	1	1	0	1	1	1	1	0.3089214998763054		2
105	1	19	4	nogo_punish	1	-1	0	0	0	1	0			2
105	1	20	4	nogo_punish	1	-1	0	0	1	0	-1	0.4368857999797911	0.0	2
105	1	21	1	go_reward	1	1	0	1	1	1	1	0.5715550000313669		2
105	1	22	3	go_punish	1	0	-1	1	1	1	0	0.2695444000419229		2
105	1	23	1	go_reward	0	0	1	1	1	1	0	0.3295543999411165		2
105	1	24	2	nogo_reward	1	0	1	0	0	1	1			2
105	1	25	1	go_reward	0	0	1	1	0	0	1			2
105	1	26	2	nogo_reward	0	1	0	0	1	0	1	0.6448085000738502		2
105	1	27	1	go_reward	0	0	1	1	0	0	1			2
105	1	28	4	nogo_punish	1	-1	0	0	0	1	0			2
105	1	29	4	nogo_punish	1	-1	0	0	1	0	-1	0.3284100999590009	0.0	2
